"rt","stimulus","response","trial_type","trial_index","time_elapsed","internal_node_id","slider_start"
"18475","Welcome to this annotation effort! Press any key to begin.","arrowright","html-keyboard-response","0","18490","0.0-0.0",""
"6304","renamed_shared1000/2951.png","4","image-slider-response","1","24803","0.0-1.0","50"
"5125","renamed_shared1000/2991.png","2","image-slider-response","2","29935","0.0-2.0","50"
"3485","renamed_shared1000/3050.png","8","image-slider-response","3","33423","0.0-3.0","50"
"4569","renamed_shared1000/3078.png","5","image-slider-response","4","37998","0.0-4.0","50"
"2609","renamed_shared1000/3172.png","7","image-slider-response","5","40614","0.0-5.0","50"
"4749","renamed_shared1000/3387.png","9","image-slider-response","6","45368","0.0-6.0","50"
"3224","renamed_shared1000/3450.png","8","image-slider-response","7","48595","0.0-7.0","50"
"8616","renamed_shared1000/3627.png","1","image-slider-response","8","57217","0.0-8.0","50"
"4731","renamed_shared1000/3730.png","2","image-slider-response","9","61953","0.0-9.0","50"
"4662","renamed_shared1000/3843.png","5","image-slider-response","10","66618","0.0-10.0","50"
"4455","renamed_shared1000/3857.png","2","image-slider-response","11","71078","0.0-11.0","50"
"6406","renamed_shared1000/3914.png","1","image-slider-response","12","77496","0.0-12.0","50"
"2728","renamed_shared1000/4052.png","3","image-slider-response","13","80233","0.0-13.0","50"
"5989","renamed_shared1000/4130.png","2","image-slider-response","14","86227","0.0-14.0","50"
"3934","renamed_shared1000/4424.png","1","image-slider-response","15","90170","0.0-15.0","50"
"2717","renamed_shared1000/4613.png","1","image-slider-response","16","92892","0.0-16.0","50"
"3027","renamed_shared1000/4787.png","4","image-slider-response","17","95930","0.0-17.0","50"
"8104","renamed_shared1000/4836.png","3","image-slider-response","18","104041","0.0-18.0","50"
"4847","renamed_shared1000/4893.png","6","image-slider-response","19","108893","0.0-19.0","50"
"3120","renamed_shared1000/5035.png","4","image-slider-response","20","112019","0.0-20.0","50"
"4307","renamed_shared1000/5339.png","3","image-slider-response","21","116330","0.0-21.0","50"
"4331","renamed_shared1000/5428.png","1","image-slider-response","22","120666","0.0-22.0","50"
"2566","renamed_shared1000/5503.png","2","image-slider-response","23","123236","0.0-23.0","50"
"2416","renamed_shared1000/5543.png","5","image-slider-response","24","125657","0.0-24.0","50"
"5435","renamed_shared1000/5584.png","3","image-slider-response","25","131097","0.0-25.0","50"
"3148","renamed_shared1000/6432.png","2","image-slider-response","26","134251","0.0-26.0","50"
"2547","renamed_shared1000/6445.png","3","image-slider-response","27","136801","0.0-27.0","50"
"3140","renamed_shared1000/6515.png","7","image-slider-response","28","139946","0.0-28.0","50"
"2438","renamed_shared1000/6525.png","8","image-slider-response","29","142389","0.0-29.0","50"
"2494","renamed_shared1000/6559.png","2","image-slider-response","30","144887","0.0-30.0","50"
"3597","renamed_shared1000/6641.png","8","image-slider-response","31","148490","0.0-31.0","50"
"2981","renamed_shared1000/6714.png","7","image-slider-response","32","151474","0.0-32.0","50"
"4119","renamed_shared1000/6802.png","1","image-slider-response","33","155597","0.0-33.0","50"
"3093","renamed_shared1000/7121.png","2","image-slider-response","34","158694","0.0-34.0","50"
"3742","renamed_shared1000/7367.png","2","image-slider-response","35","162439","0.0-35.0","50"
"4609","renamed_shared1000/7419.png","2","image-slider-response","36","167054","0.0-36.0","50"
"2359","renamed_shared1000/7481.png","1","image-slider-response","37","169418","0.0-37.0","50"
"2287","renamed_shared1000/7660.png","1","image-slider-response","38","171712","0.0-38.0","50"
"2656","renamed_shared1000/7949.png","2","image-slider-response","39","174373","0.0-39.0","50"
"2440","renamed_shared1000/8007.png","8","image-slider-response","40","176819","0.0-40.0","50"
"3096","renamed_shared1000/8110.png","6","image-slider-response","41","179921","0.0-41.0","50"
"2805","renamed_shared1000/8226.png","6","image-slider-response","42","182732","0.0-42.0","50"
"9981","renamed_shared1000/8263.png","2","image-slider-response","43","192719","0.0-43.0","50"
"2537","renamed_shared1000/8388.png","3","image-slider-response","44","195262","0.0-44.0","50"
"2572","renamed_shared1000/8466.png","7","image-slider-response","45","197841","0.0-45.0","50"
"2668","renamed_shared1000/8632.png","1","image-slider-response","46","200514","0.0-46.0","50"
"2722","renamed_shared1000/8808.png","1","image-slider-response","47","203241","0.0-47.0","50"
"3147","renamed_shared1000/8926.png","2","image-slider-response","48","206397","0.0-48.0","50"
"3318","renamed_shared1000/8934.png","2","image-slider-response","49","209719","0.0-49.0","50"
"2279","renamed_shared1000/9028.png","1","image-slider-response","50","212008","0.0-50.0","50"
"3560","renamed_shared1000/9435.png","1","image-slider-response","51","215573","0.0-51.0","50"
"2758","renamed_shared1000/9723.png","2","image-slider-response","52","218337","0.0-52.0","50"
"2668","renamed_shared1000/9848.png","6","image-slider-response","53","221010","0.0-53.0","50"
"2849","renamed_shared1000/9979.png","2","image-slider-response","54","223864","0.0-54.0","50"
"3120","renamed_shared1000/10007.png","4","image-slider-response","55","226988","0.0-55.0","50"
"2694","renamed_shared1000/10047.png","2","image-slider-response","56","229688","0.0-56.0","50"
"4299","renamed_shared1000/10108.png","1","image-slider-response","57","233997","0.0-57.0","50"
"3778","renamed_shared1000/10472.png","7","image-slider-response","58","237781","0.0-58.0","50"
"2520","renamed_shared1000/10611.png","1","image-slider-response","59","240306","0.0-59.0","50"
"2698","renamed_shared1000/11160.png","2","image-slider-response","60","243009","0.0-60.0","50"
"3432","renamed_shared1000/11334.png","2","image-slider-response","61","246447","0.0-61.0","50"
"2759","renamed_shared1000/11488.png","1","image-slider-response","62","249213","0.0-62.0","50"
"6898","renamed_shared1000/11522.png","2","image-slider-response","63","256120","0.0-63.0","50"
"2668","renamed_shared1000/11618.png","1","image-slider-response","64","258791","0.0-64.0","50"
"2878","renamed_shared1000/11636.png","2","image-slider-response","65","261675","0.0-65.0","50"
"2911","renamed_shared1000/11933.png","2","image-slider-response","66","264591","0.0-66.0","50"
"2738","renamed_shared1000/12066.png","2","image-slider-response","67","267335","0.0-67.0","50"
"2688","renamed_shared1000/12076.png","3","image-slider-response","68","270029","0.0-68.0","50"
"6307","renamed_shared1000/12496.png","6","image-slider-response","69","276339","0.0-69.0","50"
"2442","renamed_shared1000/12797.png","8","image-slider-response","70","278784","0.0-70.0","50"
"4792","renamed_shared1000/12923.png","6","image-slider-response","71","283579","0.0-71.0","50"
"4439","renamed_shared1000/13139.png","1","image-slider-response","72","288021","0.0-72.0","50"
"2161","renamed_shared1000/13315.png","1","image-slider-response","73","290186","0.0-73.0","50"
"2339","renamed_shared1000/13614.png","5","image-slider-response","74","292533","0.0-74.0","50"
"2317","renamed_shared1000/13654.png","4","image-slider-response","75","294855","0.0-75.0","50"
"2578","renamed_shared1000/13721.png","3","image-slider-response","76","297441","0.0-76.0","50"
"5498","renamed_shared1000/13847.png","3","image-slider-response","77","302945","0.0-77.0","50"
"2619","renamed_shared1000/14122.png","3","image-slider-response","78","305569","0.0-78.0","50"
"3021","renamed_shared1000/14180.png","7","image-slider-response","79","308596","0.0-79.0","50"
"2952","renamed_shared1000/14568.png","8","image-slider-response","80","311556","0.0-80.0","50"
"2309","renamed_shared1000/14794.png","1","image-slider-response","81","313870","0.0-81.0","50"
"5420","renamed_shared1000/14821.png","6","image-slider-response","82","319300","0.0-82.0","50"
"2509","renamed_shared1000/15026.png","7","image-slider-response","83","321815","0.0-83.0","50"
"2233","renamed_shared1000/15129.png","1","image-slider-response","84","324053","0.0-84.0","50"
"3681","renamed_shared1000/15493.png","3","image-slider-response","85","327739","0.0-85.0","50"
"3270","renamed_shared1000/15794.png","1","image-slider-response","86","331015","0.0-86.0","50"
"2373","renamed_shared1000/16064.png","3","image-slider-response","87","333394","0.0-87.0","50"
"5382","renamed_shared1000/16467.png","2","image-slider-response","88","338784","0.0-88.0","50"
"5952","renamed_shared1000/16636.png","2","image-slider-response","89","344742","0.0-89.0","50"
"3543","renamed_shared1000/16724.png","2","image-slider-response","90","348290","0.0-90.0","50"
"2591","renamed_shared1000/16824.png","2","image-slider-response","91","350888","0.0-91.0","50"
"3004","renamed_shared1000/16842.png","1","image-slider-response","92","353897","0.0-92.0","50"
"2842","renamed_shared1000/16866.png","2","image-slider-response","93","356746","0.0-93.0","50"
"2926","renamed_shared1000/17231.png","1","image-slider-response","94","359679","0.0-94.0","50"
"2429","renamed_shared1000/17370.png","1","image-slider-response","95","362117","0.0-95.0","50"
"2574","renamed_shared1000/17596.png","2","image-slider-response","96","364697","0.0-96.0","50"
"2467","renamed_shared1000/17777.png","2","image-slider-response","97","367175","0.0-97.0","50"
"2897","renamed_shared1000/17795.png","8","image-slider-response","98","370078","0.0-98.0","50"
"2593","renamed_shared1000/17935.png","2","image-slider-response","99","372676","0.0-99.0","50"
"2484","renamed_shared1000/18269.png","3","image-slider-response","100","375164","0.0-100.0","50"
"2118","renamed_shared1000/18506.png","2","image-slider-response","101","377287","0.0-101.0","50"
"2519","renamed_shared1000/18544.png","1","image-slider-response","102","379810","0.0-102.0","50"
"2874","renamed_shared1000/18797.png","1","image-slider-response","103","382690","0.0-103.0","50"
"2989","renamed_shared1000/19437.png","2","image-slider-response","104","385683","0.0-104.0","50"
"2047","renamed_shared1000/19574.png","2","image-slider-response","105","387736","0.0-105.0","50"
"2148","renamed_shared1000/19643.png","3","image-slider-response","106","389891","0.0-106.0","50"
"3591","renamed_shared1000/19673.png","2","image-slider-response","107","393488","0.0-107.0","50"
"4308","renamed_shared1000/19934.png","3","image-slider-response","108","397803","0.0-108.0","50"
"2881","renamed_shared1000/20055.png","2","image-slider-response","109","400690","0.0-109.0","50"
"2462","renamed_shared1000/20207.png","1","image-slider-response","110","403158","0.0-110.0","50"
"3391","renamed_shared1000/20224.png","7","image-slider-response","111","406554","0.0-111.0","50"
"2512","renamed_shared1000/20266.png","3","image-slider-response","112","409072","0.0-112.0","50"
"2281","renamed_shared1000/20308.png","2","image-slider-response","113","411358","0.0-113.0","50"
"3576","renamed_shared1000/20443.png","1","image-slider-response","114","414940","0.0-114.0","50"
"3134","renamed_shared1000/20651.png","5","image-slider-response","115","418079","0.0-115.0","50"
"3133","renamed_shared1000/20703.png","3","image-slider-response","116","421218","0.0-116.0","50"
"3698","renamed_shared1000/20821.png","1","image-slider-response","117","424922","0.0-117.0","50"
"3171","renamed_shared1000/21109.png","6","image-slider-response","118","428102","0.0-118.0","50"
"2205","renamed_shared1000/21193.png","1","image-slider-response","119","430310","0.0-119.0","50"
"8192","renamed_shared1000/21198.png","2","image-slider-response","120","438508","0.0-120.0","50"
"2366","renamed_shared1000/21219.png","1","image-slider-response","121","440881","0.0-121.0","50"
"2267","renamed_shared1000/21280.png","6","image-slider-response","122","443152","0.0-122.0","50"
"2393","renamed_shared1000/21527.png","6","image-slider-response","123","445550","0.0-123.0","50"
"29373","renamed_shared1000/21602.png","1","image-slider-response","124","474934","0.0-124.0","50"
"2985","renamed_shared1000/21704.png","6","image-slider-response","125","477925","0.0-125.0","50"
"3614","renamed_shared1000/21951.png","2","image-slider-response","126","481546","0.0-126.0","50"
"25646","renamed_shared1000/21990.png","2","image-slider-response","127","507196","0.0-127.0","50"
"2130","renamed_shared1000/22156.png","2","image-slider-response","128","509336","0.0-128.0","50"
"7531","renamed_shared1000/22506.png","2","image-slider-response","129","516876","0.0-129.0","50"
"1965","renamed_shared1000/22524.png","1","image-slider-response","130","518848","0.0-130.0","50"
"2619","renamed_shared1000/22531.png","3","image-slider-response","131","521472","0.0-131.0","50"
"2867","renamed_shared1000/22588.png","7","image-slider-response","132","524344","0.0-132.0","50"
"2594","renamed_shared1000/22773.png","2","image-slider-response","133","526945","0.0-133.0","50"
"15822","renamed_shared1000/22874.png","3","image-slider-response","134","542772","0.0-134.0","50"
"2392","renamed_shared1000/22880.png","2","image-slider-response","135","545171","0.0-135.0","50"
"2034","renamed_shared1000/22887.png","1","image-slider-response","136","547209","0.0-136.0","50"
"2593","renamed_shared1000/22994.png","6","image-slider-response","137","549808","0.0-137.0","50"
"2934","renamed_shared1000/23242.png","1","image-slider-response","138","552749","0.0-138.0","50"
"3600","renamed_shared1000/23493.png","2","image-slider-response","139","556358","0.0-139.0","50"
"2131","renamed_shared1000/23716.png","2","image-slider-response","140","558495","0.0-140.0","50"
"2217","renamed_shared1000/23730.png","2","image-slider-response","141","560715","0.0-141.0","50"
"2681","renamed_shared1000/23872.png","5","image-slider-response","142","563403","0.0-142.0","50"
"2809","renamed_shared1000/23877.png","1","image-slider-response","143","566217","0.0-143.0","50"
"8311","renamed_shared1000/23994.png","2","image-slider-response","144","574537","0.0-144.0","50"
"2072","renamed_shared1000/24265.png","2","image-slider-response","145","576616","0.0-145.0","50"
"2120","renamed_shared1000/24481.png","2","image-slider-response","146","578741","0.0-146.0","50"
"2274","renamed_shared1000/24518.png","2","image-slider-response","147","581021","0.0-147.0","50"
"2627","renamed_shared1000/24641.png","1","image-slider-response","148","583653","0.0-148.0","50"
"2412","renamed_shared1000/24788.png","3","image-slider-response","149","586071","0.0-149.0","50"
"2131","renamed_shared1000/25060.png","2","image-slider-response","150","588208","0.0-150.0","50"
"2161","renamed_shared1000/25092.png","1","image-slider-response","151","590374","0.0-151.0","50"
"3166","renamed_shared1000/25206.png","7","image-slider-response","152","593548","0.0-152.0","50"
"2516","renamed_shared1000/25372.png","3","image-slider-response","153","596069","0.0-153.0","50"
"2741","renamed_shared1000/25455.png","5","image-slider-response","154","598815","0.0-154.0","50"
"2129","renamed_shared1000/25579.png","7","image-slider-response","155","600949","0.0-155.0","50"
"3872","renamed_shared1000/25582.png","8","image-slider-response","156","604829","0.0-156.0","50"
"2758","renamed_shared1000/25589.png","2","image-slider-response","157","607591","0.0-157.0","50"
"2144","renamed_shared1000/25603.png","3","image-slider-response","158","609739","0.0-158.0","50"
"2724","renamed_shared1000/25694.png","2","image-slider-response","159","612466","0.0-159.0","50"
"37461766","renamed_shared1000/25712.png","3","image-slider-response","160","42509171","0.0-160.0","50"
"4321","renamed_shared1000/25747.png","4","image-slider-response","161","42513503","0.0-161.0","50"
"3711","renamed_shared1000/25960.png","5","image-slider-response","162","42517219","0.0-162.0","50"
"2288","renamed_shared1000/26120.png","2","image-slider-response","163","42519514","0.0-163.0","50"
"3590","renamed_shared1000/26164.png","3","image-slider-response","164","42523109","0.0-164.0","50"
"2554","renamed_shared1000/26244.png","2","image-slider-response","165","42525670","0.0-165.0","50"
"2498","renamed_shared1000/26308.png","7","image-slider-response","166","42528174","0.0-166.0","50"
"3581","renamed_shared1000/26373.png","2","image-slider-response","167","42531761","0.0-167.0","50"
"2382","renamed_shared1000/26436.png","2","image-slider-response","168","42534153","0.0-168.0","50"
"3226","renamed_shared1000/26781.png","1","image-slider-response","169","42537385","0.0-169.0","50"
"3275","renamed_shared1000/26910.png","1","image-slider-response","170","42540665","0.0-170.0","50"
"2281","renamed_shared1000/26972.png","4","image-slider-response","171","42542951","0.0-171.0","50"
"2369","renamed_shared1000/26991.png","1","image-slider-response","172","42545326","0.0-172.0","50"
"2789","renamed_shared1000/27288.png","2","image-slider-response","173","42548122","0.0-173.0","50"
"3930","renamed_shared1000/27327.png","2","image-slider-response","174","42552056","0.0-174.0","50"
"2459","renamed_shared1000/27831.png","1","image-slider-response","175","42554520","0.0-175.0","50"
"2338","renamed_shared1000/27973.png","1","image-slider-response","176","42556863","0.0-176.0","50"
"2290","renamed_shared1000/28304.png","2","image-slider-response","177","42559159","0.0-177.0","50"
"2323","renamed_shared1000/28320.png","2","image-slider-response","178","42561486","0.0-178.0","50"
"2297","renamed_shared1000/28326.png","3","image-slider-response","179","42563788","0.0-179.0","50"
"2314","renamed_shared1000/28350.png","2","image-slider-response","180","42566106","0.0-180.0","50"
"2786","renamed_shared1000/28419.png","7","image-slider-response","181","42568896","0.0-181.0","50"
"2459","renamed_shared1000/28596.png","8","image-slider-response","182","42571360","0.0-182.0","50"
"3258","renamed_shared1000/28752.png","8","image-slider-response","183","42574624","0.0-183.0","50"
"499236","renamed_shared1000/28899.png","6","image-slider-response","184","43073864","0.0-184.0","50"
"4008","renamed_shared1000/29022.png","3","image-slider-response","185","43077880","0.0-185.0","50"
"2531","renamed_shared1000/29681.png","1","image-slider-response","186","43080417","0.0-186.0","50"
"5554","renamed_shared1000/29838.png","1","image-slider-response","187","43085975","0.0-187.0","50"
"2541","renamed_shared1000/29920.png","1","image-slider-response","188","43088520","0.0-188.0","50"
"5904","renamed_shared1000/30374.png","1","image-slider-response","189","43094429","0.0-189.0","50"
"4537","renamed_shared1000/30408.png","2","image-slider-response","190","43098973","0.0-190.0","50"
"46652","renamed_shared1000/30923.png","1","image-slider-response","191","43145634","0.0-191.0","50"
"2911","renamed_shared1000/30936.png","1","image-slider-response","192","43148550","0.0-192.0","50"
"2484","renamed_shared1000/30955.png","2","image-slider-response","193","43151042","0.0-193.0","50"
"2096","renamed_shared1000/31029.png","1","image-slider-response","194","43153143","0.0-194.0","50"
"26408","renamed_shared1000/31065.png","2","image-slider-response","195","43179557","0.0-195.0","50"
"3988","renamed_shared1000/31660.png","4","image-slider-response","196","43183552","0.0-196.0","50"
"2668","renamed_shared1000/31748.png","2","image-slider-response","197","43186226","0.0-197.0","50"
"13454","renamed_shared1000/31783.png","7","image-slider-response","198","43199690","0.0-198.0","50"
"35300","renamed_shared1000/31802.png","2","image-slider-response","199","43234995","0.0-199.0","50"
"4603","renamed_shared1000/32308.png","1","image-slider-response","200","43239606","0.0-200.0","50"
"2967","renamed_shared1000/32858.png","5","image-slider-response","201","43242579","0.0-201.0","50"
"2831","renamed_shared1000/33132.png","1","image-slider-response","202","43245414","0.0-202.0","50"
"4705","renamed_shared1000/33190.png","3","image-slider-response","203","43250125","0.0-203.0","50"
"2597","renamed_shared1000/33290.png","2","image-slider-response","204","43252726","0.0-204.0","50"
"2127","renamed_shared1000/33814.png","1","image-slider-response","205","43254859","0.0-205.0","50"
"3688","renamed_shared1000/33907.png","5","image-slider-response","206","43258551","0.0-206.0","50"
"2812","renamed_shared1000/34069.png","2","image-slider-response","207","43261367","0.0-207.0","50"
"3417","renamed_shared1000/34081.png","1","image-slider-response","208","43264788","0.0-208.0","50"
"2286","renamed_shared1000/34127.png","6","image-slider-response","209","43267079","0.0-209.0","50"
"4123","renamed_shared1000/34419.png","1","image-slider-response","210","43271207","0.0-210.0","50"
"3675","renamed_shared1000/34604.png","8","image-slider-response","211","43274887","0.0-211.0","50"
"3703","renamed_shared1000/34752.png","1","image-slider-response","212","43278596","0.0-212.0","50"
"5008","renamed_shared1000/34830.png","8","image-slider-response","213","43283610","0.0-213.0","50"
"2875","renamed_shared1000/34851.png","2","image-slider-response","214","43286490","0.0-214.0","50"
"2271","renamed_shared1000/34875.png","1","image-slider-response","215","43288764","0.0-215.0","50"
"3277","renamed_shared1000/34976.png","3","image-slider-response","216","43292048","0.0-216.0","50"
"2391","renamed_shared1000/35791.png","5","image-slider-response","217","43294447","0.0-217.0","50"
"2809","renamed_shared1000/36068.png","2","image-slider-response","218","43297261","0.0-218.0","50"
"2502","renamed_shared1000/36570.png","1","image-slider-response","219","43299767","0.0-219.0","50"
"5213","renamed_shared1000/36624.png","7","image-slider-response","220","43304984","0.0-220.0","50"
"2914","renamed_shared1000/36760.png","1","image-slider-response","221","43307902","0.0-221.0","50"
"3775","renamed_shared1000/37437.png","2","image-slider-response","222","43311684","0.0-222.0","50"
"3045","renamed_shared1000/37495.png","5","image-slider-response","223","43314736","0.0-223.0","50"
"2354","renamed_shared1000/37609.png","3","image-slider-response","224","43317095","0.0-224.0","50"
"4790","renamed_shared1000/37928.png","4","image-slider-response","225","43321889","0.0-225.0","50"
"2597","renamed_shared1000/38026.png","1","image-slider-response","226","43324493","0.0-226.0","50"
"2779","renamed_shared1000/38279.png","3","image-slider-response","227","43327277","0.0-227.0","50"
"2260","renamed_shared1000/38495.png","1","image-slider-response","228","43329543","0.0-228.0","50"
"6446","renamed_shared1000/38795.png","9","image-slider-response","229","43335996","0.0-229.0","50"
"2710","renamed_shared1000/39048.png","6","image-slider-response","230","43338712","0.0-230.0","50"
"2714","renamed_shared1000/39548.png","2","image-slider-response","231","43341430","0.0-231.0","50"
"2484","renamed_shared1000/39554.png","2","image-slider-response","232","43343926","0.0-232.0","50"
"2858","renamed_shared1000/39842.png","3","image-slider-response","233","43346787","0.0-233.0","50"
"2763","renamed_shared1000/40154.png","6","image-slider-response","234","43349560","0.0-234.0","50"
"2165","renamed_shared1000/40236.png","1","image-slider-response","235","43351730","0.0-235.0","50"
"2281","renamed_shared1000/40424.png","3","image-slider-response","236","43354015","0.0-236.0","50"
"2294","renamed_shared1000/40549.png","2","image-slider-response","237","43356312","0.0-237.0","50"
"3530","renamed_shared1000/40576.png","1","image-slider-response","238","43359845","0.0-238.0","50"
"2407","renamed_shared1000/40980.png","4","image-slider-response","239","43362258","0.0-239.0","50"
"2957","renamed_shared1000/41117.png","2","image-slider-response","240","43365221","0.0-240.0","50"
"3122","renamed_shared1000/41163.png","1","image-slider-response","241","43368349","0.0-241.0","50"
"2358","renamed_shared1000/41654.png","1","image-slider-response","242","43370715","0.0-242.0","50"
"2992","renamed_shared1000/41711.png","1","image-slider-response","243","43373712","0.0-243.0","50"
"3739","renamed_shared1000/42167.png","4","image-slider-response","244","43377454","0.0-244.0","50"
"2305","renamed_shared1000/42172.png","2","image-slider-response","245","43379763","0.0-245.0","50"
"7011","renamed_shared1000/42239.png","2","image-slider-response","246","43386778","0.0-246.0","50"
"2610","renamed_shared1000/42913.png","2","image-slider-response","247","43389394","0.0-247.0","50"
"45845","renamed_shared1000/43157.png","5","image-slider-response","248","43435249","0.0-248.0","50"
"3668","renamed_shared1000/43165.png","2","image-slider-response","249","43438922","0.0-249.0","50"
"2162","renamed_shared1000/43225.png","1","image-slider-response","250","43441087","0.0-250.0","50"
"3469","renamed_shared1000/43430.png","1","image-slider-response","251","43444561","0.0-251.0","50"
"4118","renamed_shared1000/43446.png","1","image-slider-response","252","43448683","0.0-252.0","50"
"2113","renamed_shared1000/43466.png","1","image-slider-response","253","43450800","0.0-253.0","50"
"2384","renamed_shared1000/43690.png","2","image-slider-response","254","43453188","0.0-254.0","50"
"2283","renamed_shared1000/43853.png","1","image-slider-response","255","43455478","0.0-255.0","50"
"2272","renamed_shared1000/43951.png","2","image-slider-response","256","43457754","0.0-256.0","50"
"2444","renamed_shared1000/43985.png","3","image-slider-response","257","43460204","0.0-257.0","50"
"2389","renamed_shared1000/44108.png","2","image-slider-response","258","43462598","0.0-258.0","50"
"2843","renamed_shared1000/44325.png","1","image-slider-response","259","43465445","0.0-259.0","50"
"4240","renamed_shared1000/44340.png","2","image-slider-response","260","43469688","0.0-260.0","50"
"21209","renamed_shared1000/44370.png","2","image-slider-response","261","43490901","0.0-261.0","50"
"11270","renamed_shared1000/44706.png","2","image-slider-response","262","43502176","0.0-262.0","50"
"2279","renamed_shared1000/44721.png","1","image-slider-response","263","43504459","0.0-263.0","50"
"2321","renamed_shared1000/44737.png","1","image-slider-response","264","43506785","0.0-264.0","50"
"3586","renamed_shared1000/44845.png","2","image-slider-response","265","43510373","0.0-265.0","50"
"5142","renamed_shared1000/45130.png","1","image-slider-response","266","43515520","0.0-266.0","50"
"2128","renamed_shared1000/45214.png","1","image-slider-response","267","43517652","0.0-267.0","50"
"2381","renamed_shared1000/45596.png","1","image-slider-response","268","43520038","0.0-268.0","50"
"2498","renamed_shared1000/45751.png","5","image-slider-response","269","43522540","0.0-269.0","50"
"2461","renamed_shared1000/45838.png","3","image-slider-response","270","43525006","0.0-270.0","50"
"4903","renamed_shared1000/45946.png","3","image-slider-response","271","43529918","0.0-271.0","50"
"2756","renamed_shared1000/46037.png","7","image-slider-response","272","43532678","0.0-272.0","50"
"2419","renamed_shared1000/46102.png","1","image-slider-response","273","43535102","0.0-273.0","50"
"2902","renamed_shared1000/46151.png","5","image-slider-response","274","43538008","0.0-274.0","50"
"2979","renamed_shared1000/46381.png","3","image-slider-response","275","43540992","0.0-275.0","50"
"4721","renamed_shared1000/46463.png","8","image-slider-response","276","43545717","0.0-276.0","50"
"2329","renamed_shared1000/47100.png","2","image-slider-response","277","43548050","0.0-277.0","50"
"2579","renamed_shared1000/47201.png","9","image-slider-response","278","43550634","0.0-278.0","50"
"3618","renamed_shared1000/47294.png","3","image-slider-response","279","43554255","0.0-279.0","50"
"2169","renamed_shared1000/47322.png","1","image-slider-response","280","43556435","0.0-280.0","50"
"95746","renamed_shared1000/47409.png","2","image-slider-response","281","43652187","0.0-281.0","50"
"7599","renamed_shared1000/47601.png","2","image-slider-response","282","43659791","0.0-282.0","50"
"3468","renamed_shared1000/47688.png","2","image-slider-response","283","43663262","0.0-283.0","50"
"2297","renamed_shared1000/48394.png","3","image-slider-response","284","43665564","0.0-284.0","50"
"43103","renamed_shared1000/48531.png","6","image-slider-response","285","43708672","0.0-285.0","50"
"3705","renamed_shared1000/48680.png","4","image-slider-response","286","43712382","0.0-286.0","50"
"4388","renamed_shared1000/48833.png","4","image-slider-response","287","43716773","0.0-287.0","50"
"2289","renamed_shared1000/49157.png","2","image-slider-response","288","43719067","0.0-288.0","50"
"3059","renamed_shared1000/49481.png","2","image-slider-response","289","43722130","0.0-289.0","50"
"4252","renamed_shared1000/49623.png","1","image-slider-response","290","43726387","0.0-290.0","50"
"3170","renamed_shared1000/49924.png","3","image-slider-response","291","43729560","0.0-291.0","50"
"2478","renamed_shared1000/49945.png","1","image-slider-response","292","43732048","0.0-292.0","50"
"2421","renamed_shared1000/49956.png","4","image-slider-response","293","43734473","0.0-293.0","50"
"2418","renamed_shared1000/49958.png","3","image-slider-response","294","43736895","0.0-294.0","50"
"5626","renamed_shared1000/49970.png","2","image-slider-response","295","43742525","0.0-295.0","50"
"3928","renamed_shared1000/49980.png","3","image-slider-response","296","43746458","0.0-296.0","50"
"3535","renamed_shared1000/50027.png","1","image-slider-response","297","43749997","0.0-297.0","50"
"3851","renamed_shared1000/50171.png","6","image-slider-response","298","43753851","0.0-298.0","50"
"2479","renamed_shared1000/50735.png","4","image-slider-response","299","43756335","0.0-299.0","50"
"3469","renamed_shared1000/51063.png","1","image-slider-response","300","43759809","0.0-300.0","50"
"2600","renamed_shared1000/51149.png","1","image-slider-response","301","43762413","0.0-301.0","50"
"2374","renamed_shared1000/51908.png","6","image-slider-response","302","43764795","0.0-302.0","50"
"2953","renamed_shared1000/51929.png","1","image-slider-response","303","43767752","0.0-303.0","50"
"2604","renamed_shared1000/51984.png","6","image-slider-response","304","43770362","0.0-304.0","50"
"4125","renamed_shared1000/51989.png","5","image-slider-response","305","43774493","0.0-305.0","50"
"3966","renamed_shared1000/52217.png","6","image-slider-response","306","43778464","0.0-306.0","50"
"3301","renamed_shared1000/52376.png","3","image-slider-response","307","43781770","0.0-307.0","50"
"3950","renamed_shared1000/52597.png","2","image-slider-response","308","43785724","0.0-308.0","50"
"4098","renamed_shared1000/52599.png","1","image-slider-response","309","43789826","0.0-309.0","50"
"4303","renamed_shared1000/52893.png","7","image-slider-response","310","43794135","0.0-310.0","50"
"2537","renamed_shared1000/53071.png","1","image-slider-response","311","43796676","0.0-311.0","50"
"2951","renamed_shared1000/53156.png","2","image-slider-response","312","43799633","0.0-312.0","50"
"3331","renamed_shared1000/53158.png","1","image-slider-response","313","43802968","0.0-313.0","50"
"2286","renamed_shared1000/53271.png","3","image-slider-response","314","43805261","0.0-314.0","50"
"4573","renamed_shared1000/53371.png","3","image-slider-response","315","43809839","0.0-315.0","50"
"3314","renamed_shared1000/53512.png","5","image-slider-response","316","43813156","0.0-316.0","50"
"4986","renamed_shared1000/53571.png","6","image-slider-response","317","43818147","0.0-317.0","50"
"4985","renamed_shared1000/53728.png","4","image-slider-response","318","43823134","0.0-318.0","50"
"3784","renamed_shared1000/53892.png","3","image-slider-response","319","43826922","0.0-319.0","50"
"3244","renamed_shared1000/54148.png","3","image-slider-response","320","43830170","0.0-320.0","50"
"2273","renamed_shared1000/54644.png","3","image-slider-response","321","43832453","0.0-321.0","50"
"2622","renamed_shared1000/54684.png","5","image-slider-response","322","43835079","0.0-322.0","50"
"2260","renamed_shared1000/54699.png","7","image-slider-response","323","43837342","0.0-323.0","50"
"3204","renamed_shared1000/54813.png","3","image-slider-response","324","43840550","0.0-324.0","50"
"2388","renamed_shared1000/54960.png","4","image-slider-response","325","43842941","0.0-325.0","50"
"3355","renamed_shared1000/55108.png","1","image-slider-response","326","43846299","0.0-326.0","50"
"2371","renamed_shared1000/55406.png","5","image-slider-response","327","43848675","0.0-327.0","50"
"4273","renamed_shared1000/55527.png","2","image-slider-response","328","43852953","0.0-328.0","50"
"4386","renamed_shared1000/55670.png","1","image-slider-response","329","43857343","0.0-329.0","50"
"2264","renamed_shared1000/55679.png","4","image-slider-response","330","43859611","0.0-330.0","50"
"4036","renamed_shared1000/55858.png","1","image-slider-response","331","43863652","0.0-331.0","50"
"2895","renamed_shared1000/55934.png","1","image-slider-response","332","43866551","0.0-332.0","50"
"2555","renamed_shared1000/56127.png","5","image-slider-response","333","43869111","0.0-333.0","50"
"2695","renamed_shared1000/56291.png","6","image-slider-response","334","43871810","0.0-334.0","50"
"3991","renamed_shared1000/56315.png","2","image-slider-response","335","43875806","0.0-335.0","50"
"2235","renamed_shared1000/56419.png","5","image-slider-response","336","43878045","0.0-336.0","50"
"2073","renamed_shared1000/56696.png","2","image-slider-response","337","43880122","0.0-337.0","50"
"4318","renamed_shared1000/56785.png","2","image-slider-response","338","43884444","0.0-338.0","50"
"2622","renamed_shared1000/56851.png","4","image-slider-response","339","43887073","0.0-339.0","50"
"4111","renamed_shared1000/56868.png","7","image-slider-response","340","43891190","0.0-340.0","50"
"2192","renamed_shared1000/56949.png","3","image-slider-response","341","43893385","0.0-341.0","50"
"2234","renamed_shared1000/57061.png","1","image-slider-response","342","43895623","0.0-342.0","50"
"3380","renamed_shared1000/57436.png","5","image-slider-response","343","43899007","0.0-343.0","50"
"2411","renamed_shared1000/57479.png","8","image-slider-response","344","43901424","0.0-344.0","50"
"3937","renamed_shared1000/57543.png","6","image-slider-response","345","43905365","0.0-345.0","50"
"4206","renamed_shared1000/57649.png","3","image-slider-response","346","43909577","0.0-346.0","50"
"2587","renamed_shared1000/57682.png","1","image-slider-response","347","43912171","0.0-347.0","50"
"1960","renamed_shared1000/58165.png","1","image-slider-response","348","43914134","0.0-348.0","50"
"2747","renamed_shared1000/58188.png","1","image-slider-response","349","43916884","0.0-349.0","50"
"2369","renamed_shared1000/58669.png","4","image-slider-response","350","43919257","0.0-350.0","50"
"3970","renamed_shared1000/59080.png","2","image-slider-response","351","43923232","0.0-351.0","50"
"2056","renamed_shared1000/59195.png","2","image-slider-response","352","43925292","0.0-352.0","50"
"2348","renamed_shared1000/59285.png","2","image-slider-response","353","43927644","0.0-353.0","50"
"2757","renamed_shared1000/59420.png","3","image-slider-response","354","43930405","0.0-354.0","50"
"3429","renamed_shared1000/59421.png","7","image-slider-response","355","43933837","0.0-355.0","50"
"3999","renamed_shared1000/59596.png","2","image-slider-response","356","43937842","0.0-356.0","50"
"3157","renamed_shared1000/59700.png","1","image-slider-response","357","43941003","0.0-357.0","50"
"2289","renamed_shared1000/59995.png","1","image-slider-response","358","43943296","0.0-358.0","50"
"2894","renamed_shared1000/60120.png","2","image-slider-response","359","43946198","0.0-359.0","50"
"2528","renamed_shared1000/60187.png","1","image-slider-response","360","43948733","0.0-360.0","50"
"2568","renamed_shared1000/60252.png","2","image-slider-response","361","43951307","0.0-361.0","50"
"2047","renamed_shared1000/60306.png","2","image-slider-response","362","43953361","0.0-362.0","50"
"2022","renamed_shared1000/60726.png","3","image-slider-response","363","43955387","0.0-363.0","50"
"2327","renamed_shared1000/60979.png","1","image-slider-response","364","43957723","0.0-364.0","50"
"5610","renamed_shared1000/61178.png","2","image-slider-response","365","43963337","0.0-365.0","50"
"4183","renamed_shared1000/61511.png","9","image-slider-response","366","43967531","0.0-366.0","50"
"2199","renamed_shared1000/61514.png","8","image-slider-response","367","43969734","0.0-367.0","50"
"2347","renamed_shared1000/61678.png","3","image-slider-response","368","43972085","0.0-368.0","50"
"2039","renamed_shared1000/61749.png","1","image-slider-response","369","43974128","0.0-369.0","50"
"2089","renamed_shared1000/61798.png","1","image-slider-response","370","43976221","0.0-370.0","50"
"2031","renamed_shared1000/62210.png","1","image-slider-response","371","43978257","0.0-371.0","50"
"2630","renamed_shared1000/62229.png","2","image-slider-response","372","43980891","0.0-372.0","50"
"2410","renamed_shared1000/62366.png","1","image-slider-response","373","43983305","0.0-373.0","50"
"3003","renamed_shared1000/62480.png","2","image-slider-response","374","43986318","0.0-374.0","50"
"4745","renamed_shared1000/62545.png","9","image-slider-response","375","43991067","0.0-375.0","50"
"2372","renamed_shared1000/62749.png","6","image-slider-response","376","43993445","0.0-376.0","50"
"2328","renamed_shared1000/62961.png","1","image-slider-response","377","43995777","0.0-377.0","50"
"2759","renamed_shared1000/63346.png","3","image-slider-response","378","43998540","0.0-378.0","50"
"2161","renamed_shared1000/63450.png","6","image-slider-response","379","44000705","0.0-379.0","50"
"1877","renamed_shared1000/63826.png","2","image-slider-response","380","44002585","0.0-380.0","50"
"2400","renamed_shared1000/63923.png","1","image-slider-response","381","44004987","0.0-381.0","50"
"2460","renamed_shared1000/63945.png","2","image-slider-response","382","44007451","0.0-382.0","50"
"2828","renamed_shared1000/64005.png","6","image-slider-response","383","44010283","0.0-383.0","50"
"2744","renamed_shared1000/64097.png","1","image-slider-response","384","44013032","0.0-384.0","50"
"2738","renamed_shared1000/64296.png","5","image-slider-response","385","44015777","0.0-385.0","50"
"3421","renamed_shared1000/64616.png","5","image-slider-response","386","44019204","0.0-386.0","50"
"4190","renamed_shared1000/64688.png","2","image-slider-response","387","44023400","0.0-387.0","50"
"3344","renamed_shared1000/64772.png","2","image-slider-response","388","44026751","0.0-388.0","50"
"2774","renamed_shared1000/64881.png","3","image-slider-response","389","44029528","0.0-389.0","50"
"3532","renamed_shared1000/65011.png","1","image-slider-response","390","44033064","0.0-390.0","50"
"2041","renamed_shared1000/65070.png","2","image-slider-response","391","44035110","0.0-391.0","50"
"2023","renamed_shared1000/65149.png","3","image-slider-response","392","44037137","0.0-392.0","50"
"3283","renamed_shared1000/65770.png","8","image-slider-response","393","44040425","0.0-393.0","50"
"2267","renamed_shared1000/65822.png","8","image-slider-response","394","44042702","0.0-394.0","50"
"5376","renamed_shared1000/65944.png","2","image-slider-response","395","44048082","0.0-395.0","50"
"2468","renamed_shared1000/66343.png","1","image-slider-response","396","44050554","0.0-396.0","50"
"2215","renamed_shared1000/66422.png","1","image-slider-response","397","44052774","0.0-397.0","50"
"2905","renamed_shared1000/66465.png","2","image-slider-response","398","44055683","0.0-398.0","50"
"2209","renamed_shared1000/66581.png","1","image-slider-response","399","44057897","0.0-399.0","50"
"5754","renamed_shared1000/66774.png","2","image-slider-response","400","44063656","0.0-400.0","50"
"2473","renamed_shared1000/66977.png","1","image-slider-response","401","44066133","0.0-401.0","50"
"2712","renamed_shared1000/67238.png","1","image-slider-response","402","44068851","0.0-402.0","50"
"3224","renamed_shared1000/67253.png","2","image-slider-response","403","44072079","0.0-403.0","50"
"4376","renamed_shared1000/67296.png","5","image-slider-response","404","44076460","0.0-404.0","50"
"2458","renamed_shared1000/67743.png","1","image-slider-response","405","44078924","0.0-405.0","50"
"2992","renamed_shared1000/67803.png","2","image-slider-response","406","44081921","0.0-406.0","50"
"2764","renamed_shared1000/67830.png","5","image-slider-response","407","44084690","0.0-407.0","50"
"2190","renamed_shared1000/68419.png","2","image-slider-response","408","44086891","0.0-408.0","50"
"2451","renamed_shared1000/68742.png","2","image-slider-response","409","44089346","0.0-409.0","50"
"2852","renamed_shared1000/68843.png","3","image-slider-response","410","44092203","0.0-410.0","50"
"2145","renamed_shared1000/68859.png","5","image-slider-response","411","44094351","0.0-411.0","50"
"1973","renamed_shared1000/68898.png","3","image-slider-response","412","44096329","0.0-412.0","50"
"2333","renamed_shared1000/69008.png","7","image-slider-response","413","44098665","0.0-413.0","50"
"2118","renamed_shared1000/69031.png","4","image-slider-response","414","44100789","0.0-414.0","50"
"2102","renamed_shared1000/69503.png","3","image-slider-response","415","44102895","0.0-415.0","50"
"4260","renamed_shared1000/69615.png","6","image-slider-response","416","44107160","0.0-416.0","50"
"4605","renamed_shared1000/69832.png","2","image-slider-response","417","44111774","0.0-417.0","50"
"3922","renamed_shared1000/69855.png","3","image-slider-response","418","44115701","0.0-418.0","50"
"3467","renamed_shared1000/69919.png","2","image-slider-response","419","44119172","0.0-419.0","50"
"2969","renamed_shared1000/70039.png","2","image-slider-response","420","44122145","0.0-420.0","50"
"2444","renamed_shared1000/70076.png","1","image-slider-response","421","44124594","0.0-421.0","50"
"3380","renamed_shared1000/70096.png","2","image-slider-response","422","44127978","0.0-422.0","50"
"2314","renamed_shared1000/70194.png","1","image-slider-response","423","44130297","0.0-423.0","50"
"1948","renamed_shared1000/70233.png","2","image-slider-response","424","44132250","0.0-424.0","50"
"4036","renamed_shared1000/70369.png","7","image-slider-response","425","44136290","0.0-425.0","50"
"2662","renamed_shared1000/70428.png","6","image-slider-response","426","44138956","0.0-426.0","50"
"3970","renamed_shared1000/70506.png","1","image-slider-response","427","44142935","0.0-427.0","50"
"2392","renamed_shared1000/70672.png","3","image-slider-response","428","44145331","0.0-428.0","50"
"2513","renamed_shared1000/70765.png","3","image-slider-response","429","44147848","0.0-429.0","50"
"2338","renamed_shared1000/70948.png","3","image-slider-response","430","44150192","0.0-430.0","50"
"2431","renamed_shared1000/71187.png","1","image-slider-response","431","44152628","0.0-431.0","50"
"2624","renamed_shared1000/71230.png","5","image-slider-response","432","44155258","0.0-432.0","50"
"3525","renamed_shared1000/71233.png","3","image-slider-response","433","44158787","0.0-433.0","50"
"4361","renamed_shared1000/71451.png","1","image-slider-response","434","44163154","0.0-434.0","50"
"5646","renamed_shared1000/71929.png","6","image-slider-response","435","44168808","0.0-435.0","50"
"5048","renamed_shared1000/72081.png","4","image-slider-response","436","44173860","0.0-436.0","50"
"3923","renamed_shared1000/72210.png","2","image-slider-response","437","44177787","0.0-437.0","50"
"4257","renamed_shared1000/72313.png","2","image-slider-response","438","44182048","0.0-438.0","50"
"3871","renamed_shared1000/3182.png","1","image-slider-response","439","44185923","0.0-439.0","50"
"3355","renamed_shared1000/3490.png","2","image-slider-response","440","44189285","0.0-440.0","50"
"4208","renamed_shared1000/3627.png","1","image-slider-response","441","44193498","0.0-441.0","50"
"3593","renamed_shared1000/3810.png","3","image-slider-response","442","44197096","0.0-442.0","50"
"3272","renamed_shared1000/4052.png","3","image-slider-response","443","44200371","0.0-443.0","50"
"2107","renamed_shared1000/4059.png","2","image-slider-response","444","44202482","0.0-444.0","50"
"4076","renamed_shared1000/4326.png","2","image-slider-response","445","44206562","0.0-445.0","50"
"3455","renamed_shared1000/4668.png","1","image-slider-response","446","44210021","0.0-446.0","50"
"4999","renamed_shared1000/5107.png","3","image-slider-response","447","44215025","0.0-447.0","50"
"2980","renamed_shared1000/5286.png","2","image-slider-response","448","44218011","0.0-448.0","50"
"4403","renamed_shared1000/5575.png","3","image-slider-response","449","44222418","0.0-449.0","50"
"4323","renamed_shared1000/7008.png","2","image-slider-response","450","44226745","0.0-450.0","50"
"2381","renamed_shared1000/7208.png","1","image-slider-response","451","44229131","0.0-451.0","50"
"2268","renamed_shared1000/7945.png","2","image-slider-response","452","44231406","0.0-452.0","50"
"2760","renamed_shared1000/8205.png","1","image-slider-response","453","44234169","0.0-453.0","50"
"2720","renamed_shared1000/8275.png","3","image-slider-response","454","44236894","0.0-454.0","50"
"2272","renamed_shared1000/8632.png","1","image-slider-response","455","44239170","0.0-455.0","50"
"2435","renamed_shared1000/8934.png","3","image-slider-response","456","44241608","0.0-456.0","50"
"6138","renamed_shared1000/9148.png","5","image-slider-response","457","44247751","0.0-457.0","50"
"2700","renamed_shared1000/10047.png","1","image-slider-response","458","44250454","0.0-458.0","50"
"3629","renamed_shared1000/11334.png","2","image-slider-response","459","44254090","0.0-459.0","50"
"3382","renamed_shared1000/11567.png","2","image-slider-response","460","44257477","0.0-460.0","50"
"4121","renamed_shared1000/11636.png","2","image-slider-response","461","44261606","0.0-461.0","50"
"2271","renamed_shared1000/11726.png","3","image-slider-response","462","44263882","0.0-462.0","50"
"2205","renamed_shared1000/12076.png","3","image-slider-response","463","44266091","0.0-463.0","50"
"2290","renamed_shared1000/12309.png","1","image-slider-response","464","44268386","0.0-464.0","50"
"2768","renamed_shared1000/12799.png","1","image-slider-response","465","44271160","0.0-465.0","50"
"2357","renamed_shared1000/13231.png","1","image-slider-response","466","44273524","0.0-466.0","50"
"4229","renamed_shared1000/13654.png","4","image-slider-response","467","44277758","0.0-467.0","50"
"5101","renamed_shared1000/14122.png","1","image-slider-response","468","44282863","0.0-468.0","50"
"6841","renamed_shared1000/14444.png","2","image-slider-response","469","44289709","0.0-469.0","50"
"3439","renamed_shared1000/14595.png","2","image-slider-response","470","44293156","0.0-470.0","50"
"8394","renamed_shared1000/14899.png","2","image-slider-response","471","44301556","0.0-471.0","50"
"5041","renamed_shared1000/15365.png","2","image-slider-response","472","44306602","0.0-472.0","50"
"4457","renamed_shared1000/15507.png","1","image-slider-response","473","44311063","0.0-473.0","50"
"3531","renamed_shared1000/15794.png","2","image-slider-response","474","44314598","0.0-474.0","50"
"2301","renamed_shared1000/15820.png","2","image-slider-response","475","44316903","0.0-475.0","50"
"2315","renamed_shared1000/15940.png","1","image-slider-response","476","44319222","0.0-476.0","50"
"2122","renamed_shared1000/16422.png","1","image-slider-response","477","44321347","0.0-477.0","50"
"2680","renamed_shared1000/16656.png","2","image-slider-response","478","44324030","0.0-478.0","50"
"6447","renamed_shared1000/16869.png","2","image-slider-response","479","44330486","0.0-479.0","50"
"5033","renamed_shared1000/17777.png","2","image-slider-response","480","44335524","0.0-480.0","50"
"3296","renamed_shared1000/18484.png","3","image-slider-response","481","44338824","0.0-481.0","50"
"5402","renamed_shared1000/18536.png","2","image-slider-response","482","44344229","0.0-482.0","50"
"4658","renamed_shared1000/19075.png","2","image-slider-response","483","44348892","0.0-483.0","50"
"4638","renamed_shared1000/19691.png","10","image-slider-response","484","44353537","0.0-484.0","50"
"2752","renamed_shared1000/20081.png","1","image-slider-response","485","44356295","0.0-485.0","50"
"3305","renamed_shared1000/20308.png","2","image-slider-response","486","44359603","0.0-486.0","50"
"2535","renamed_shared1000/20739.png","1","image-slider-response","487","44362142","0.0-487.0","50"
"3215","renamed_shared1000/21254.png","2","image-slider-response","488","44365361","0.0-488.0","50"
"3664","renamed_shared1000/21319.png","1","image-slider-response","489","44369030","0.0-489.0","50"
"2562","renamed_shared1000/21951.png","1","image-slider-response","490","44371599","0.0-490.0","50"
"3186","renamed_shared1000/22139.png","2","image-slider-response","491","44374790","0.0-491.0","50"
"3508","renamed_shared1000/22264.png","2","image-slider-response","492","44378303","0.0-492.0","50"
"5991","renamed_shared1000/22506.png","1","image-slider-response","493","44384298","0.0-493.0","50"
"2028","renamed_shared1000/22586.png","1","image-slider-response","494","44386332","0.0-494.0","50"
"6940","renamed_shared1000/22773.png","2","image-slider-response","495","44393280","0.0-495.0","50"
"6451","renamed_shared1000/22846.png","3","image-slider-response","496","44399736","0.0-496.0","50"
"2138","renamed_shared1000/22968.png","1","image-slider-response","497","44401880","0.0-497.0","50"
"4412","renamed_shared1000/23037.png","2","image-slider-response","498","44406297","0.0-498.0","50"
"3417","renamed_shared1000/23242.png","1","image-slider-response","499","44409718","0.0-499.0","50"
"4347","renamed_shared1000/23994.png","2","image-slider-response","500","44414069","0.0-500.0","50"
"2459","renamed_shared1000/24203.png","1","image-slider-response","501","44416536","0.0-501.0","50"
"3501","renamed_shared1000/24215.png","3","image-slider-response","502","44420041","0.0-502.0","50"
"4264","renamed_shared1000/24518.png","2","image-slider-response","503","44424309","0.0-503.0","50"
"1986","renamed_shared1000/24531.png","1","image-slider-response","504","44426302","0.0-504.0","50"
"4789","renamed_shared1000/24639.png","3","image-slider-response","505","44431096","0.0-505.0","50"
"2217","renamed_shared1000/24740.png","1","image-slider-response","506","44433317","0.0-506.0","50"
"5614","renamed_shared1000/24741.png","1","image-slider-response","507","44438935","0.0-507.0","50"
"5558","renamed_shared1000/24847.png","2","image-slider-response","508","44444497","0.0-508.0","50"
"3546","renamed_shared1000/25112.png","4","image-slider-response","509","44448048","0.0-509.0","50"
"4650","renamed_shared1000/25269.png","1","image-slider-response","510","44452702","0.0-510.0","50"
"31120","renamed_shared1000/25285.png","3","image-slider-response","511","44483825","0.0-511.0","50"
"3571","renamed_shared1000/25319.png","3","image-slider-response","512","44487401","0.0-512.0","50"
"3049","renamed_shared1000/25320.png","10","image-slider-response","513","44490453","0.0-513.0","50"
"44851","renamed_shared1000/25694.png","3","image-slider-response","514","44535310","0.0-514.0","50"
"5243","renamed_shared1000/25703.png","3","image-slider-response","515","44540561","0.0-515.0","50"
"2835","renamed_shared1000/25882.png","4","image-slider-response","516","44543399","0.0-516.0","50"
"2973","renamed_shared1000/26352.png","2","image-slider-response","517","44546376","0.0-517.0","50"
"8264","renamed_shared1000/26459.png","1","image-slider-response","518","44554646","0.0-518.0","50"
"5078","renamed_shared1000/26599.png","1","image-slider-response","519","44559730","0.0-519.0","50"
"2916","renamed_shared1000/26721.png","1","image-slider-response","520","44562650","0.0-520.0","50"
"3129","renamed_shared1000/27243.png","1","image-slider-response","521","44565783","0.0-521.0","50"
"6063","renamed_shared1000/27276.png","2","image-slider-response","522","44571855","0.0-522.0","50"
"16864","renamed_shared1000/27436.png","2","image-slider-response","523","44588725","0.0-523.0","50"
"3190","renamed_shared1000/27879.png","2","image-slider-response","524","44591919","0.0-524.0","50"
"5133","renamed_shared1000/28069.png","2","image-slider-response","525","44597056","0.0-525.0","50"
"4484","renamed_shared1000/28190.png","2","image-slider-response","526","44601544","0.0-526.0","50"
"14667512","renamed_shared1000/28326.png","2","image-slider-response","527","87293307","0.0-527.0","50"
"2394","renamed_shared1000/28746.png","2","image-slider-response","528","87295712","0.0-528.0","50"
"2488","renamed_shared1000/28964.png","1","image-slider-response","529","87298207","0.0-529.0","50"
"2419","renamed_shared1000/29382.png","1","image-slider-response","530","87300632","0.0-530.0","50"
"2174","renamed_shared1000/29569.png","1","image-slider-response","531","87302813","0.0-531.0","50"
"2435","renamed_shared1000/29664.png","1","image-slider-response","532","87305252","0.0-532.0","50"
"2630","renamed_shared1000/29712.png","1","image-slider-response","533","87307886","0.0-533.0","50"
"2773","renamed_shared1000/29838.png","1","image-slider-response","534","87310664","0.0-534.0","50"
"6657","renamed_shared1000/29920.png","1","image-slider-response","535","87317327","0.0-535.0","50"
"2403","renamed_shared1000/30396.png","1","image-slider-response","536","87319738","0.0-536.0","50"
"3051","renamed_shared1000/30633.png","1","image-slider-response","537","87322796","0.0-537.0","50"
"2600","renamed_shared1000/30673.png","1","image-slider-response","538","87325401","0.0-538.0","50"
"2257","renamed_shared1000/30848.png","1","image-slider-response","539","87327662","0.0-539.0","50"
"2348","renamed_shared1000/30888.png","1","image-slider-response","540","87330015","0.0-540.0","50"
"2307","renamed_shared1000/31065.png","2","image-slider-response","541","87332328","0.0-541.0","50"
"2992","renamed_shared1000/32054.png","2","image-slider-response","542","87335326","0.0-542.0","50"
"2183","renamed_shared1000/32233.png","1","image-slider-response","543","87337514","0.0-543.0","50"
"3796","renamed_shared1000/32304.png","1","image-slider-response","544","87341317","0.0-544.0","50"
"3088","renamed_shared1000/32644.png","1","image-slider-response","545","87344411","0.0-545.0","50"
"2704","renamed_shared1000/32772.png","2","image-slider-response","546","87347119","0.0-546.0","50"
"2559","renamed_shared1000/33172.png","1","image-slider-response","547","87349682","0.0-547.0","50"
"2278","renamed_shared1000/33190.png","3","image-slider-response","548","87351964","0.0-548.0","50"
"2325","renamed_shared1000/34090.png","2","image-slider-response","549","87354293","0.0-549.0","50"
"2061","renamed_shared1000/34239.png","2","image-slider-response","550","87356360","0.0-550.0","50"
"3779","renamed_shared1000/34752.png","2","image-slider-response","551","87360150","0.0-551.0","50"
"2627","renamed_shared1000/34846.png","3","image-slider-response","552","87362782","0.0-552.0","50"
"3573","renamed_shared1000/35095.png","4","image-slider-response","553","87366361","0.0-553.0","50"
"3525","renamed_shared1000/35130.png","2","image-slider-response","554","87369892","0.0-554.0","50"
"14601","renamed_shared1000/35744.png","2","image-slider-response","555","87384497","0.0-555.0","50"
"2305","renamed_shared1000/35799.png","2","image-slider-response","556","87386808","0.0-556.0","50"
"4027","renamed_shared1000/35987.png","2","image-slider-response","557","87390838","0.0-557.0","50"
"2532","renamed_shared1000/36259.png","2","image-slider-response","558","87393374","0.0-558.0","50"
"3596","renamed_shared1000/36477.png","1","image-slider-response","559","87396974","0.0-559.0","50"
"2800","renamed_shared1000/36683.png","1","image-slider-response","560","87399781","0.0-560.0","50"
"2458","renamed_shared1000/36732.png","2","image-slider-response","561","87402244","0.0-561.0","50"
"2623","renamed_shared1000/36911.png","2","image-slider-response","562","87404870","0.0-562.0","50"
"2404","renamed_shared1000/37802.png","2","image-slider-response","563","87407278","0.0-563.0","50"
"3286","renamed_shared1000/38023.png","2","image-slider-response","564","87410569","0.0-564.0","50"
"5944","renamed_shared1000/38061.png","2","image-slider-response","565","87416520","0.0-565.0","50"
"3426","renamed_shared1000/38247.png","2","image-slider-response","566","87419950","0.0-566.0","50"
"3421","renamed_shared1000/38311.png","1","image-slider-response","567","87423376","0.0-567.0","50"
"3330","renamed_shared1000/38359.png","1","image-slider-response","568","87426710","0.0-568.0","50"
"5565","renamed_shared1000/38484.png","1","image-slider-response","569","87432280","0.0-569.0","50"
"3100","renamed_shared1000/39096.png","2","image-slider-response","570","87435388","0.0-570.0","50"
"5028","renamed_shared1000/39510.png","2","image-slider-response","571","87440420","0.0-571.0","50"
"2779","renamed_shared1000/39548.png","2","image-slider-response","572","87443203","0.0-572.0","50"
"4159","renamed_shared1000/39554.png","2","image-slider-response","573","87447368","0.0-573.0","50"
"4273","renamed_shared1000/39842.png","4","image-slider-response","574","87451645","0.0-574.0","50"
"5472","renamed_shared1000/39998.png","4","image-slider-response","575","87457123","0.0-575.0","50"
"16100","renamed_shared1000/40722.png","1","image-slider-response","576","87473226","0.0-576.0","50"
"4241","renamed_shared1000/40771.png","1","image-slider-response","577","87477473","0.0-577.0","50"
"6344","renamed_shared1000/40841.png","2","image-slider-response","578","87483822","0.0-578.0","50"
"2564","renamed_shared1000/40847.png","1","image-slider-response","579","87486391","0.0-579.0","50"
"2391","renamed_shared1000/40910.png","1","image-slider-response","580","87488787","0.0-580.0","50"
"4966","renamed_shared1000/41098.png","1","image-slider-response","581","87493759","0.0-581.0","50"
"2560","renamed_shared1000/41779.png","2","image-slider-response","582","87496323","0.0-582.0","50"
"2651","renamed_shared1000/41815.png","5","image-slider-response","583","87498978","0.0-583.0","50"
"2541","renamed_shared1000/41928.png","1","image-slider-response","584","87501523","0.0-584.0","50"
"2331","renamed_shared1000/42127.png","1","image-slider-response","585","87503858","0.0-585.0","50"
"2592","renamed_shared1000/42300.png","1","image-slider-response","586","87506454","0.0-586.0","50"
"3656","renamed_shared1000/42643.png","3","image-slider-response","587","87510113","0.0-587.0","50"
"2881","renamed_shared1000/42649.png","2","image-slider-response","588","87513001","0.0-588.0","50"
"2902","renamed_shared1000/42698.png","1","image-slider-response","589","87515907","0.0-589.0","50"
"3555","renamed_shared1000/43108.png","2","image-slider-response","590","87519465","0.0-590.0","50"
"3389","renamed_shared1000/43158.png","1","image-slider-response","591","87522859","0.0-591.0","50"
"2530","renamed_shared1000/43160.png","2","image-slider-response","592","87525392","0.0-592.0","50"
"3393","renamed_shared1000/43165.png","3","image-slider-response","593","87528788","0.0-593.0","50"
"2178","renamed_shared1000/43429.png","2","image-slider-response","594","87530971","0.0-594.0","50"
"2451","renamed_shared1000/43466.png","1","image-slider-response","595","87533426","0.0-595.0","50"
"2717","renamed_shared1000/43501.png","2","image-slider-response","596","87536148","0.0-596.0","50"
"2383","renamed_shared1000/43620.png","3","image-slider-response","597","87538534","0.0-597.0","50"
"2594","renamed_shared1000/43676.png","1","image-slider-response","598","87541132","0.0-598.0","50"
"5005","renamed_shared1000/43690.png","2","image-slider-response","599","87546142","0.0-599.0","50"
"3462","renamed_shared1000/43747.png","1","image-slider-response","600","87549607","0.0-600.0","50"
"2867","renamed_shared1000/43821.png","2","image-slider-response","601","87552478","0.0-601.0","50"
"5846","renamed_shared1000/44053.png","1","image-slider-response","602","87558327","0.0-602.0","50"
"3055","renamed_shared1000/44098.png","2","image-slider-response","603","87561385","0.0-603.0","50"
"2358","renamed_shared1000/44108.png","2","image-slider-response","604","87563748","0.0-604.0","50"
"4057","renamed_shared1000/44185.png","1","image-slider-response","605","87567812","0.0-605.0","50"
"3045","renamed_shared1000/44325.png","1","image-slider-response","606","87570863","0.0-606.0","50"
"4373","renamed_shared1000/44340.png","1","image-slider-response","607","87575240","0.0-607.0","50"
"2382","renamed_shared1000/44730.png","1","image-slider-response","608","87577627","0.0-608.0","50"
"2650","renamed_shared1000/44845.png","2","image-slider-response","609","87580281","0.0-609.0","50"
"3442","renamed_shared1000/45214.png","2","image-slider-response","610","87583727","0.0-610.0","50"
"2459","renamed_shared1000/45357.png","1","image-slider-response","611","87586189","0.0-611.0","50"
"5276","renamed_shared1000/45633.png","2","image-slider-response","612","87591471","0.0-612.0","50"
"3792","renamed_shared1000/45983.png","3","image-slider-response","613","87595268","0.0-613.0","50"
"4217","renamed_shared1000/46000.png","1","image-slider-response","614","87599489","0.0-614.0","50"
"2884","renamed_shared1000/46003.png","2","image-slider-response","615","87602376","0.0-615.0","50"
"3038","renamed_shared1000/46161.png","1","image-slider-response","616","87605417","0.0-616.0","50"
"7483","renamed_shared1000/46275.png","2","image-slider-response","617","87612903","0.0-617.0","50"
"2867","renamed_shared1000/46322.png","2","image-slider-response","618","87615772","0.0-618.0","50"
"2406","renamed_shared1000/46481.png","2","image-slider-response","619","87618180","0.0-619.0","50"
"5747","renamed_shared1000/46524.png","1","image-slider-response","620","87623930","0.0-620.0","50"
"2406","renamed_shared1000/46807.png","2","image-slider-response","621","87626341","0.0-621.0","50"
"3608","renamed_shared1000/47599.png","1","image-slider-response","622","87629954","0.0-622.0","50"
"3709","renamed_shared1000/48509.png","1","image-slider-response","623","87633669","0.0-623.0","50"
"2224","renamed_shared1000/48840.png","2","image-slider-response","624","87635896","0.0-624.0","50"
"3479","renamed_shared1000/49153.png","1","image-slider-response","625","87639380","0.0-625.0","50"
"5777","renamed_shared1000/49157.png","3","image-slider-response","626","87645161","0.0-626.0","50"
"2882","renamed_shared1000/49467.png","1","image-slider-response","627","87648046","0.0-627.0","50"
"2484","renamed_shared1000/49732.png","2","image-slider-response","628","87650533","0.0-628.0","50"
"3010","renamed_shared1000/50115.png","2","image-slider-response","629","87653548","0.0-629.0","50"
"48839","renamed_shared1000/50756.png","2","image-slider-response","630","87702390","0.0-630.0","50"
"2259","renamed_shared1000/50812.png","1","image-slider-response","631","87704659","0.0-631.0","50"
"2395","renamed_shared1000/50883.png","2","image-slider-response","632","87707058","0.0-632.0","50"
"2701","renamed_shared1000/51186.png","1","image-slider-response","633","87709764","0.0-633.0","50"
"4561","renamed_shared1000/51746.png","2","image-slider-response","634","87714328","0.0-634.0","50"
"3124","renamed_shared1000/51789.png","3","image-slider-response","635","87717455","0.0-635.0","50"
"2701","renamed_shared1000/51844.png","5","image-slider-response","636","87720161","0.0-636.0","50"
"2444","renamed_shared1000/51966.png","2","image-slider-response","637","87722609","0.0-637.0","50"
"2540","renamed_shared1000/52303.png","2","image-slider-response","638","87725153","0.0-638.0","50"
"2719","renamed_shared1000/52376.png","3","image-slider-response","639","87727876","0.0-639.0","50"
"32384","renamed_shared1000/52528.png","1","image-slider-response","640","87760265","0.0-640.0","50"
"2904","renamed_shared1000/52893.png","4","image-slider-response","641","87763176","0.0-641.0","50"
"3816","renamed_shared1000/53158.png","1","image-slider-response","642","87766995","0.0-642.0","50"
"2776","renamed_shared1000/53882.png","2","image-slider-response","643","87769776","0.0-643.0","50"
"2479","renamed_shared1000/54258.png","3","image-slider-response","644","87772259","0.0-644.0","50"
"3475","renamed_shared1000/54390.png","2","image-slider-response","645","87775738","0.0-645.0","50"
"3055","renamed_shared1000/55650.png","2","image-slider-response","646","87778800","0.0-646.0","50"
"25000","renamed_shared1000/56043.png","1","image-slider-response","647","87803804","0.0-647.0","50"
"6435","renamed_shared1000/56067.png","2","image-slider-response","648","87810242","0.0-648.0","50"
"2702","renamed_shared1000/56155.png","1","image-slider-response","649","87812949","0.0-649.0","50"
"2590","renamed_shared1000/56270.png","2","image-slider-response","650","87815542","0.0-650.0","50"
"3130","renamed_shared1000/56315.png","2","image-slider-response","651","87818678","0.0-651.0","50"
"4228","renamed_shared1000/56455.png","2","image-slider-response","652","87822910","0.0-652.0","50"
"4266","renamed_shared1000/57839.png","1","image-slider-response","653","87827181","0.0-653.0","50"
"28535","renamed_shared1000/57907.png","2","image-slider-response","654","87855719","0.0-654.0","50"
"4485","renamed_shared1000/58097.png","1","image-slider-response","655","87860207","0.0-655.0","50"
"4095","renamed_shared1000/59024.png","2","image-slider-response","656","87864305","0.0-656.0","50"
"3098","renamed_shared1000/59040.png","3","image-slider-response","657","87867406","0.0-657.0","50"
"3535","renamed_shared1000/59080.png","3","image-slider-response","658","87870946","0.0-658.0","50"
"2646","renamed_shared1000/59195.png","2","image-slider-response","659","87873596","0.0-659.0","50"
"2722","renamed_shared1000/59632.png","2","image-slider-response","660","87876320","0.0-660.0","50"
"23453","renamed_shared1000/59818.png","1","image-slider-response","661","87899782","0.0-661.0","50"
"2421","renamed_shared1000/60506.png","1","image-slider-response","662","87902207","0.0-662.0","50"
"2979","renamed_shared1000/60520.png","3","image-slider-response","663","87905191","0.0-663.0","50"
"2909","renamed_shared1000/60835.png","1","image-slider-response","664","87908106","0.0-664.0","50"
"4256","renamed_shared1000/60868.png","1","image-slider-response","665","87912366","0.0-665.0","50"
"6656","renamed_shared1000/61123.png","1","image-slider-response","666","87919026","0.0-666.0","50"
"5421","renamed_shared1000/61134.png","2","image-slider-response","667","87924451","0.0-667.0","50"
"2779","renamed_shared1000/61753.png","1","image-slider-response","668","87927233","0.0-668.0","50"
"3204","renamed_shared1000/61802.png","3","image-slider-response","669","87930441","0.0-669.0","50"
"2271","renamed_shared1000/62303.png","1","image-slider-response","670","87932715","0.0-670.0","50"
"2578","renamed_shared1000/63826.png","1","image-slider-response","671","87935296","0.0-671.0","50"
"2573","renamed_shared1000/63932.png","2","image-slider-response","672","87937873","0.0-672.0","50"
"2802","renamed_shared1000/63945.png","2","image-slider-response","673","87940678","0.0-673.0","50"
"3132","renamed_shared1000/64484.png","1","image-slider-response","674","87943814","0.0-674.0","50"
"3433","renamed_shared1000/64616.png","4","image-slider-response","675","87947252","0.0-675.0","50"
"3775","renamed_shared1000/65011.png","2","image-slider-response","676","87951031","0.0-676.0","50"
"2712","renamed_shared1000/65188.png","1","image-slider-response","677","87953747","0.0-677.0","50"
"2152","renamed_shared1000/65415.png","1","image-slider-response","678","87955903","0.0-678.0","50"
"2188","renamed_shared1000/65446.png","1","image-slider-response","679","87958095","0.0-679.0","50"
"4486","renamed_shared1000/65921.png","4","image-slider-response","680","87962585","0.0-680.0","50"
"2605","renamed_shared1000/66005.png","2","image-slider-response","681","87965194","0.0-681.0","50"
"2375","renamed_shared1000/66215.png","2","image-slider-response","682","87967574","0.0-682.0","50"
"2357","renamed_shared1000/66217.png","3","image-slider-response","683","87969935","0.0-683.0","50"
"3182","renamed_shared1000/66331.png","2","image-slider-response","684","87973121","0.0-684.0","50"
"2270","renamed_shared1000/66480.png","2","image-slider-response","685","87975396","0.0-685.0","50"
"3073","renamed_shared1000/66837.png","1","image-slider-response","686","87978474","0.0-686.0","50"
"3146","renamed_shared1000/66977.png","1","image-slider-response","687","87981624","0.0-687.0","50"
"2899","renamed_shared1000/67169.png","1","image-slider-response","688","87984528","0.0-688.0","50"
"2641","renamed_shared1000/68024.png","2","image-slider-response","689","87987173","0.0-689.0","50"
"3503","renamed_shared1000/68169.png","2","image-slider-response","690","87990679","0.0-690.0","50"
"3497","renamed_shared1000/68472.png","2","image-slider-response","691","87994179","0.0-691.0","50"
"4066","renamed_shared1000/68742.png","4","image-slider-response","692","87998248","0.0-692.0","50"
"4387","renamed_shared1000/68898.png","3","image-slider-response","693","88002639","0.0-693.0","50"
"3111","renamed_shared1000/69026.png","1","image-slider-response","694","88005755","0.0-694.0","50"
"4817","renamed_shared1000/69617.png","2","image-slider-response","695","88010577","0.0-695.0","50"
"3033","renamed_shared1000/69786.png","2","image-slider-response","696","88013614","0.0-696.0","50"
"4457","renamed_shared1000/69814.png","4","image-slider-response","697","88018075","0.0-697.0","50"
"3346","renamed_shared1000/70336.png","2","image-slider-response","698","88021426","0.0-698.0","50"
"2422","renamed_shared1000/70590.png","2","image-slider-response","699","88023852","0.0-699.0","50"
"2270","renamed_shared1000/71026.png","1","image-slider-response","700","88026126","0.0-700.0","50"
"3224","renamed_shared1000/71895.png","2","image-slider-response","701","88029354","0.0-701.0","50"
"4298","renamed_shared1000/72171.png","1","image-slider-response","702","88033655","0.0-702.0","50"
"3999","renamed_shared1000/72258.png","2","image-slider-response","703","88037657","0.0-703.0","50"
"2270","renamed_shared1000/72606.png","1","image-slider-response","704","88039933","0.0-704.0","50"
