SUBJECT	SESSION	RUN	TRIAL	73KID	10KID	TIME	ISOLD	ISCORRECT	RT	CHANGEMIND	MEMORYRECENT	MEMORYFIRST	ISOLDCURRENT	ISCORRECTCURRENT	TOTAL1	TOTAL2	BUTTON	MISSINGDATA
1	1	1	1	46003	626	0.5050821574404835701	0	1	803.52978099836036563	0	NaN	NaN	0	1	1	0	1	0
1	1	1	2	61883	5013	0.50512845453340560198	0	1	972.26138300175080076	0	NaN	NaN	0	1	1	0	1	0
1	1	1	3	829	4850	0.50517474208027124405	0	1	742.35123599646613002	0	NaN	NaN	0	1	1	0	1	0
1	1	1	4	67574	8823	0.50522104988340288401	0	1	747.51847900188295171	0	NaN	NaN	0	1	1	0	1	0
1	1	1	5	16021	9538	0.50526732834987342358	0	1	547.4227739978232421	0	NaN	NaN	0	1	1	0	1	0
1	1	1	6	40423	6061	0.50531363196205347776	0	1	510.57239300280343741	0	NaN	NaN	0	1	1	0	1	0
1	1	1	7	51518	4421	0.50535982451401650906	0	1	524.69478399871150032	0	NaN	NaN	0	1	1	0	1	0
1	1	1	8	62326	3858	0.50540611648466438055	0	1	622.74995600455440581	0	NaN	NaN	0	1	1	0	1	0
1	1	1	9	50611	8124	0.50545241241343319416	0	1	577.38673799758544192	0	NaN	NaN	0	1	1	0	1	0
1	1	1	10	55066	4843	0.505498698097653687	0	1	522.79152900155168027	0	NaN	NaN	0	1	1	0	1	0
1	1	1	11	37399	7941	0.50554499437566846609	0	1	514.94153500243555754	0	NaN	NaN	0	1	1	0	1	0
1	1	1	12	18040	4523	0.50559128914028406143	0	1	559.41493700083810836	0	NaN	NaN	0	1	1	0	1	0
1	1	1	13	67534	1070	0.50568388297688215971	0	1	543.39148000144632533	0	NaN	NaN	0	1	1	0	1	0
1	1	1	14	21823	9588	0.50573018030263483524	0	1	650.56066000397549942	0	NaN	NaN	0	1	1	0	1	0
1	1	1	15	35406	4623	0.50577646156307309866	0	1	564.74270699982298538	0	NaN	NaN	0	1	1	0	1	0
1	1	1	16	21691	3185	0.50582275923807173967	0	1	607.08710999460890889	0	NaN	NaN	0	1	1	0	1	0
1	1	1	17	28279	4586	0.5058690621517598629	0	1	602.99350899731507525	0	NaN	NaN	0	1	1	0	1	0
1	1	1	18	10460	1009	0.50591535295825451612	0	1	602.78816700156312436	0	NaN	NaN	0	1	1	0	1	0
1	1	1	19	2294	8634	0.5059616465587168932	0	1	575.64747500146040693	0	NaN	NaN	0	1	1	0	1	0
1	1	1	20	44326	9648	0.50600794341880828142	0	1	811.63528600154677406	0	NaN	NaN	0	1	1	0	1	0
1	1	1	21	38219	9425	0.50605423538945615292	0	1	919.27330900216475129	0	NaN	NaN	0	1	1	0	1	0
1	1	1	22	30033	1344	0.50610052142292261124	0	1	904.76979700179072097	0	NaN	NaN	0	1	1	0	1	0
1	1	1	23	65256	7441	0.50619311095215380192	0	1	683.76399599947035313	0	NaN	NaN	0	1	1	0	1	0
1	1	1	24	64920	3902	0.50623940816149115562	0	1	669.15412299567833543	0	NaN	NaN	0	1	1	0	1	0
1	1	1	25	12470	8795	0.50628570583648979664	0	1	601.59637100150575861	0	NaN	NaN	0	1	1	0	1	0
1	1	1	26	43079	1840	0.50633199233561754227	0	1	639.91949399496661499	0	NaN	NaN	0	1	1	0	1	0
1	1	1	27	8927	1356	0.50637829280458390713	0	1	1271.2752209990867414	0	NaN	NaN	0	1	1	0	1	0
1	1	1	28	9861	5506	0.50642458733636885881	0	1	751.86318399937590584	0	NaN	NaN	0	1	1	0	1	0
1	1	1	29	48618	666	0.5064708818681538105	0	1	677.62917400250444189	0	NaN	NaN	0	1	1	0	1	0
1	1	1	30	18700	8240	0.50651717581786215305	0	1	714.42810400185408071	0	NaN	NaN	0	1	1	0	1	0
1	1	1	31	52708	7232	0.5065634723287075758	0	1	910.8137489965884015	0	NaN	NaN	0	1	1	0	1	0
1	1	1	32	65061	5691	0.50660976208746433258	0	1	548.62776899972232059	0	NaN	NaN	0	1	1	0	1	0
1	1	1	33	47924	6661	0.50665605382528156042	0	1	680.20512600196525455	0	NaN	NaN	0	1	1	0	1	0
1	1	1	34	54483	2400	0.50670225196518003941	0	1	736.74509299598867074	0	NaN	NaN	0	1	1	0	1	0
1	1	1	35	58817	2252	0.50679484347347170115	0	1	735.04798700014362112	0	NaN	NaN	0	1	1	0	1	0
1	1	1	36	44981	612	0.50684113719034940004	0	1	1009.2638530040858313	0	NaN	NaN	0	1	1	0	1	0
1	1	1	37	12259	1609	0.50688742392230778933	0	1	703.14154800144024193	0	NaN	NaN	0	1	1	0	1	0
1	1	1	38	2549	3579	0.5069337266031652689	0	1	743.37900699902093038	0	NaN	NaN	0	1	1	0	1	0
1	1	1	39	11019	1703	0.50698002462740987539	0	1	675.59693200018955395	0	NaN	NaN	0	1	1	0	1	0
1	1	1	40	23359	9976	0.50702631461899727583	0	1	746.97811700025340542	0	NaN	NaN	0	1	1	0	1	0
1	1	1	41	39387	5770	0.50707260810304433107	0	1	836.5338180010439828	0	NaN	NaN	0	1	1	0	1	0
1	1	1	42	17682	8748	0.50711890659295022488	0	1	664.4724709985894151	0	NaN	NaN	0	1	1	0	1	0
1	1	1	43	61820	9202	0.5071651943726465106	0	1	885.76529700367245823	0	NaN	NaN	0	1	1	0	1	0
1	1	1	44	572	3123	0.50721149134915322065	0	1	755.73064399941358715	0	NaN	NaN	0	1	1	0	1	0
1	1	1	45	32626	436	0.50725778448395431042	0	1	733.0651220036088489	0	NaN	NaN	0	1	1	0	1	0
1	1	1	46	28279	4586	0.50735036528203636408	1	1	1104.6992819974548183	0	28	NaN	1	1	0	1	2	0
1	1	1	47	17498	1499	0.50739667087327688932	0	1	807.13784199906513095	0	NaN	NaN	0	1	1	0	1	0
1	1	1	48	50803	2872	0.5074429614469408989	0	1	687.15428300492931157	0	NaN	NaN	0	1	2	0	1	0
1	1	1	49	36629	9173	0.50748925493098795414	0	1	702.84425399586325511	0	NaN	NaN	0	1	1	0	1	0
1	1	1	50	22269	2665	0.50753555051051080227	0	1	829.58026300184428692	0	NaN	NaN	0	1	1	0	1	0
1	1	1	51	27746	1045	0.50758184376172721386	0	1	783.0546869954559952	0	NaN	NaN	0	1	1	0	1	0
1	1	1	52	18469	1974	0.50762813538312911987	0	1	843.05764299642760307	0	NaN	NaN	0	1	1	0	1	0
1	1	1	53	34052	2268	0.50767442723736166954	0	1	762.7290849995915778	0	NaN	NaN	0	1	1	0	1	0
1	1	1	54	15556	7771	0.50772072048857808113	0	1	735.15779700392158702	0	NaN	NaN	0	1	1	0	1	0
1	1	1	55	17304	6336	0.50781331793405115604	0	1	745.03664899384602904	0	NaN	NaN	0	1	1	0	1	0
1	1	1	56	53053	727	0.50785950920544564724	0	1	602.24685700086411089	0	NaN	NaN	0	1	1	0	1	0
1	1	1	57	4931	40	0.50790580734610557556	0	1	803.13363899767864496	0	NaN	NaN	0	1	1	0	1	0
1	1	1	58	43899	6000	0.50795209943316876888	0	1	1034.5246140059316531	0	NaN	NaN	0	1	1	0	1	0
1	1	1	59	3372	7046	0.5079983854666352272	0	1	804.70534799678716809	0	NaN	NaN	0	1	1	0	1	0
1	1	1	60	17953	1607	0.50804469001013785601	0	1	1277.7432879956904799	0	NaN	NaN	0	1	1	0	1	0
1	1	1	61	31928	2132	0.50809098256286233664	0	1	777.35319899511523545	0	NaN	NaN	0	1	1	0	1	0
1	1	1	62	50006	5352	0.50813727988861501217	0	1	750.95463800244033337	0	NaN	NaN	0	1	1	0	1	0
1	1	1	63	35619	2514	0.50818357046227902174	0	1	942.54903299588477239	0	NaN	NaN	0	1	1	0	1	0
1	1	2	1	4997	5730	0.51034711487591266632	0	1	878.48194000252988189	0	NaN	NaN	0	1	1	0	1	0
1	1	2	2	3586	4135	0.5103934137150645256	0	1	657.94699400430545211	0	NaN	NaN	0	1	1	0	1	0
1	1	2	3	33484	5169	0.51043959660455584526	0	NaN	NaN	NaN	NaN	NaN	0	NaN	0	0	NaN	0
1	1	2	4	2814	5821	0.51048588845878839493	0	1	667.59937300230376422	0	NaN	NaN	0	1	1	0	1	0
1	1	2	5	17305	8842	0.51053219055756926537	0	1	589.29891100706299767	0	NaN	NaN	0	1	1	0	1	0
1	1	2	6	3586	4135	0.51057848869822919369	1	1	782.41123999760020524	0	3	NaN	1	1	0	1	2	0
1	1	2	7	27902	4990	0.51062477880623191595	0	1	953.6857370039797388	0	NaN	NaN	0	1	1	0	1	0
1	1	2	8	34024	9955	0.51067107392009347677	0	1	625.59658999816747382	0	NaN	NaN	0	1	1	0	1	0
1	1	2	9	17669	7331	0.510717370780184865	0	1	734.49400100071216002	0	NaN	NaN	0	1	1	0	1	0
1	1	2	10	7161	3470	0.51076365855988115072	0	1	1121.447140998498071	0	NaN	NaN	0	1	1	0	1	0
1	1	2	11	27205	9913	0.51080995518714189529	0	1	845.51321899925824255	0	NaN	NaN	0	1	1	0	1	0
1	1	2	12	45700	3207	0.51090254157315939665	0	1	826.91651099594309926	0	NaN	NaN	0	1	1	0	1	0
1	1	2	13	6125	5799	0.51094883191399276257	0	1	845.85247799986973405	0	NaN	NaN	0	1	1	0	1	0
1	1	2	14	45319	4068	0.51099512376822531223	0	1	668.34970199852250516	0	NaN	NaN	0	1	1	0	1	0
1	1	2	15	42195	2204	0.51104142959229648113	0	1	905.05118099827086553	0	NaN	NaN	0	1	1	0	1	0
1	1	2	16	15285	7081	0.51108772098086774349	0	1	992.25676000060047954	0	NaN	NaN	0	1	1	0	1	0
1	1	2	17	13759	3632	0.51113401120528578758	0	1	716.61804999894229695	0	NaN	NaN	0	1	1	0	1	0
1	1	2	18	45722	3444	0.51118030166253447533	0	1	806.55943500460125506	0	NaN	NaN	0	1	1	0	1	0
1	1	2	19	25280	2840	0.51122659537941217422	0	1	972.86201200040522963	0	NaN	NaN	0	1	1	0	1	0
1	1	2	20	52866	1538	0.51127289957366883755	0	1	771.80021799722453579	0	NaN	NaN	0	1	1	0	1	0
1	1	2	21	39790	8951	0.51136547874193638563	0	1	792.05291299876989797	0	NaN	NaN	0	1	1	0	1	0
1	1	2	22	7189	8009	0.51141177257522940636	0	1	812.49862199911149219	0	NaN	NaN	0	1	1	0	1	0
1	1	2	23	23749	5772	0.51145807281136512756	0	1	1037.9470979969482869	0	NaN	NaN	0	1	1	0	1	0
1	1	2	24	44086	5200	0.51150435907766222954	0	1	732.11070999968796968	0	NaN	NaN	0	1	1	0	1	0
1	1	2	25	27606	7984	0.51155065256170928478	0	1	678.81237899564439431	0	NaN	NaN	0	1	1	0	1	0
1	1	2	26	33365	9865	0.51159695617388933897	0	1	1041.1587869966751896	0	NaN	NaN	0	1	1	0	1	0
1	1	2	27	7265	7367	0.51164314651396125555	0	1	1011.2447470019105822	0	NaN	NaN	0	1	1	0	1	0
1	1	2	28	32626	436	0.51168943999800831079	1	1	849.6588530033477582	0	45	NaN	1	1	0	1	2	0
1	1	2	29	65973	3014	0.51173574093263596296	0	1	689.73710000136634335	0	NaN	NaN	0	1	1	0	1	0
1	1	2	30	14819	3569	0.51178203010931611061	0	1	676.59102500329026952	0	NaN	NaN	0	1	1	0	1	0
1	1	2	31	60124	6871	0.51187462080270051956	0	1	907.13756599870976061	0	NaN	NaN	0	1	1	0	1	0
1	1	2	32	42726	4263	0.51192091649863868952	0	1	837.8133180012810044	0	NaN	NaN	0	1	1	0	1	0
1	1	2	33	50103	3694	0.51196721079759299755	0	1	1328.9307559971348383	0	NaN	NaN	0	1	1	0	1	0
1	1	2	34	21684	5322	0.51201349752955138683	0	1	1390.3581659978954121	0	NaN	NaN	0	1	1	0	1	0
1	1	2	35	31969	4061	0.51205980533268302679	0	1	1002.1127629952388816	0	NaN	NaN	0	1	1	0	1	0
1	1	2	36	25261	7985	0.51210609206464141607	0	1	973.48004300147294998	0	NaN	NaN	0	1	1	0	1	0
1	1	2	37	11881	6041	0.5121523889247328043	0	1	1172.2963119973428547	0	NaN	NaN	0	1	1	0	1	0
1	1	2	38	13300	6142	0.51219867949839681387	0	0	1479.5980959970620461	0	NaN	NaN	0	0	0	1	2	0
1	1	2	39	68509	6843	0.51224497554358094931	0	1	841.88759099924936891	0	NaN	NaN	0	1	1	0	1	0
1	1	2	40	18657	7442	0.51229127030819654465	0	1	691.87816100020427257	0	NaN	NaN	0	1	1	0	1	0
1	1	2	41	38925	1108	0.51238385913893580437	0	1	802.11966299975756556	0	NaN	NaN	0	1	1	0	1	0
1	1	2	42	15722	9936	0.51243014447391033173	0	1	854.64904900436522439	0	NaN	NaN	0	1	1	0	1	0
1	1	2	43	15762	2757	0.51247644366230815649	0	1	839.35350099636707455	0	NaN	NaN	0	1	1	0	1	0
1	1	2	44	49171	9658	0.51252273994032293558	0	0	1445.3478700015693903	0	NaN	NaN	0	0	0	1	2	0
1	1	2	45	33484	5169	0.51256903528701514006	1	1	903.94789000129094347	0	41	NaN	1	1	0	1	2	0
1	1	2	46	26186	3376	0.5126153227174654603	0	1	809.67709299875423312	0	NaN	NaN	0	1	1	0	1	0
1	1	2	47	70469	7287	0.51266161969397217035	0	1	804.30037000041920692	0	NaN	NaN	0	1	1	0	1	0
1	1	2	48	4696	5363	0.51270790980197489262	0	1	1204.2965739965438843	0	NaN	NaN	0	1	1	0	1	0
1	1	2	49	205	5834	0.51275421248283237219	0	1	1262.3249309981474653	0	NaN	NaN	0	1	1	0	1	0
1	1	2	50	3391	6448	0.51280050876084715128	0	1	952.02777699887519702	0	NaN	NaN	0	1	1	0	1	0
1	1	2	51	69028	4186	0.51284680073149502277	0	1	1078.0740730042452924	0	NaN	NaN	0	1	1	0	1	0
1	1	2	52	19764	9715	0.51289308688137680292	0	1	1050.5718220010749064	0	NaN	NaN	0	1	1	0	1	0
1	1	2	53	44361	1430	0.51298557862173765898	0	1	803.08918000082485378	0	NaN	NaN	0	1	1	0	1	0
1	1	2	54	47126	9621	0.51303187420126050711	0	1	1003.2574700016994029	0	NaN	NaN	0	1	1	0	1	0
1	1	2	55	33467	7112	0.51307817385531961918	0	1	1069.2956049970234744	0	NaN	NaN	0	1	1	0	1	0
1	1	2	56	40934	9845	0.51312446070369333029	0	1	1235.5939370027044788	0	NaN	NaN	0	1	1	0	1	0
1	1	2	57	67445	7473	0.51317076338455080986	0	1	1766.9943310029339045	0	NaN	NaN	0	1	1	0	1	0
1	1	2	58	6432	60	0.51321705093141645193	0	1	1002.0540459954645485	0	NaN	NaN	0	1	1	0	1	0
1	1	2	59	15762	2757	0.51326335105113685131	1	1	934.87881500186631456	0	15	NaN	1	1	0	1	2	0
1	1	2	60	2020	2704	0.51330963720101863146	0	1	1278.2864790060557425	0	NaN	NaN	0	1	1	0	1	0
1	1	2	61	2294	8634	0.51335593592375516891	1	1	1174.834981000458356	0	104	NaN	1	1	0	1	2	0
1	1	2	62	25407	4900	0.51340222533326596022	0	1	2002.2295420058071613	0	NaN	NaN	0	1	1	0	1	0
1	1	3	1	4777	7336	0.51559788140002638102	0	1	938.23203999636461958	0	NaN	NaN	0	1	1	0	1	0
1	1	3	2	70336	970	0.51564417884219437838	0	0	1219.3957190029323101	0	NaN	NaN	0	0	0	1	2	0
1	1	3	3	27359	4229	0.51569046243093907833	0	1	767.72679699934087694	0	NaN	NaN	0	1	1	0	1	0
1	1	3	4	27814	3770	0.5157367681385949254	0	1	1022.3584819977986626	0	NaN	NaN	0	1	1	0	1	0
1	1	3	5	58521	3284	0.51578304904978722334	0	1	1304.0148639993276447	0	NaN	NaN	0	1	1	0	1	0
1	1	3	6	39391	6316	0.51582935964688658714	0	1	1273.5156150010880083	0	NaN	NaN	0	1	1	0	1	0
1	1	3	7	67100	1266	0.51587563508655875921	0	1	946.21685000311117619	0	NaN	NaN	0	1	1	0	1	0
1	1	3	8	36577	479	0.5159219417255371809	0	1	977.28175399970496073	0	NaN	NaN	0	1	1	0	1	0
1	1	3	9	70137	6277	0.51596823392901569605	0	1	829.6402440028032288	0	NaN	NaN	0	1	1	0	1	0
1	1	3	10	68100	9754	0.51601453847251832485	0	1	1169.5933669980149716	0	NaN	NaN	0	1	1	0	1	0
1	1	3	11	39187	7300	0.51610712159890681505	0	1	719.3125060002785176	0	NaN	NaN	0	1	1	0	1	0
1	1	3	12	12707	1104	0.51615340320859104395	0	1	808.8073019971488975	0	NaN	NaN	0	1	1	0	1	0
1	1	3	13	156	7313	0.51619970542378723621	0	1	1055.127092004113365	0	NaN	NaN	0	1	1	0	1	0
1	1	3	14	9377	3250	0.51624599902424961329	0	1	1691.2967460011714138	0	NaN	NaN	0	1	1	0	1	0
1	1	3	15	6363	6726	0.51629230193793773651	0	1	1368.8161219979519956	0	NaN	NaN	0	1	1	0	1	0
1	1	3	16	46117	8054	0.51633858692366629839	0	1	662.35510499973315746	0	NaN	NaN	0	1	1	0	1	0
1	1	3	17	18068	7613	0.51638488867320120335	0	1	864.79954799870029092	0	NaN	NaN	0	1	1	0	1	0
1	1	3	18	51595	6236	0.51643116993363946676	0	1	1064.2813890008255839	0	NaN	NaN	0	1	1	0	1	0
1	1	3	19	60986	2259	0.51647746912203729153	0	1	902.73135300230933353	0	NaN	NaN	0	1	1	0	1	0
1	1	3	20	62950	3968	0.51652376062702387571	0	1	1065.9325390006415546	0	NaN	NaN	0	1	1	0	1	0
1	1	3	21	70125	2980	0.51657004980370402336	0	1	1242.1637930019642226	0	NaN	NaN	0	1	1	0	1	0
1	1	3	22	51993	9718	0.5166163536487147212	0	1	808.17125200701411813	0	NaN	NaN	0	1	1	0	1	0
1	1	3	23	32189	1550	0.51666264759842306376	0	1	887.64607300254283473	0	NaN	NaN	0	1	1	0	1	0
1	1	3	24	70125	2980	0.51670883956830948591	1	1	952.29301500512519851	0	2	NaN	1	1	0	1	2	0
1	1	3	25	51228	6274	0.51680143026169389486	0	1	1815.2008359975297935	0	NaN	NaN	0	1	1	0	1	0
1	1	3	26	16149	6666	0.51684772432781755924	0	1	1089.6035330006270669	0	NaN	NaN	0	1	1	0	1	0
1	1	3	27	26954	3580	0.51689401362091302872	0	1	1260.8144979967619292	0	NaN	NaN	0	1	1	0	1	0
1	1	3	28	57047	791	0.51694030559156090021	0	1	1065.0578260028851219	0	NaN	NaN	0	1	1	0	1	0
1	1	3	29	15556	7771	0.51698660058900713921	1	1	779.6508170067681931	0	99	NaN	1	1	0	1	2	0
1	1	3	30	25261	7985	0.51703290315344929695	1	1	828.0438110014074482	0	55	NaN	1	1	0	1	2	0
1	1	3	31	54124	5651	0.51707918604370206594	0	0	2065.8005079967551865	0	NaN	NaN	0	0	0	1	2	0
1	1	3	32	62342	4786	0.51712548721116036177	0	1	1317.2357119983644225	0	NaN	NaN	0	1	1	0	1	0
1	1	3	33	59480	5910	0.51717178383842110634	0	1	855.0538089984911494	0	NaN	NaN	0	1	1	0	1	0
1	1	3	34	53541	6588	0.51721807033754885197	0	1	1360.6955020004534163	0	NaN	NaN	0	1	1	0	1	0
1	1	3	35	54927	5925	0.51726436731405556202	0	1	1250.9145470030489378	0	NaN	NaN	0	1	1	0	1	0
1	1	3	36	38891	5699	0.51735696091782301664	0	1	1469.4014869965030812	0	NaN	NaN	0	1	1	0	1	0
1	1	3	37	56555	3719	0.51740325649734586477	0	1	990.60509999981150031	0	NaN	NaN	0	1	1	0	1	0
1	1	3	38	57088	5440	0.51744953950401395559	0	1	1418.4013859994593076	0	NaN	NaN	0	1	1	0	1	0
1	1	3	39	32702	9470	0.51749583415221422911	0	1	1193.5459009982878342	0	NaN	NaN	0	1	1	0	1	0
1	1	3	40	9256	1330	0.51754213322419673204	0	1	884.7935289959423244	0	NaN	NaN	0	1	1	0	1	0
1	1	3	41	17897	8935	0.51758842507842928171	0	1	903.40037699934327975	0	NaN	NaN	0	1	1	0	1	0
1	1	3	42	7660	80	0.51763472531456500292	0	1	876.99752100161276758	0	NaN	NaN	0	1	1	0	1	0
1	1	3	43	67143	2159	0.5176810193806886673	0	1	922.53067799902055413	0	NaN	NaN	0	1	1	0	1	0
1	1	3	44	35804	1866	0.5177273161243647337	0	1	1103.3292280044406652	0	NaN	NaN	0	1	1	0	1	0
1	1	3	45	34012	5965	0.51781990670133382082	0	1	2032.4699230041005649	0	NaN	NaN	0	1	1	0	1	0
1	1	3	46	33443	7512	0.51786619552876800299	0	1	783.93457600031979382	0	NaN	NaN	0	1	1	0	1	0
1	1	3	47	37021	4025	0.51791248982772231102	0	1	745.10648400610079989	0	NaN	NaN	0	1	1	0	1	0
1	1	3	48	37021	4025	0.51795868296176195145	1	1	705.3980060009052977	0	0	NaN	1	1	0	1	2	0
1	1	3	49	30374	403	0.51800497225485742092	0	1	1579.0932029995019548	0	NaN	NaN	0	1	1	0	1	0
1	1	3	50	53424	1665	0.51805127144325524569	0	0	1107.2980259996256791	0	NaN	NaN	0	0	0	1	2	0
1	1	3	51	37016	9667	0.51809756224974989891	0	1	830.39185000234283507	0	NaN	NaN	0	1	1	0	1	0
1	1	3	52	25960	340	0.51814386248588562012	0	1	920.79274100251495838	0	NaN	NaN	0	1	1	0	1	0
1	1	3	53	5119	6692	0.51819015282671898603	0	1	1685.9664340008748695	0	NaN	NaN	0	1	1	0	1	0
1	1	3	54	64648	3824	0.51828275062143802643	0	1	861.34823499742196873	0	NaN	NaN	0	1	1	0	1	0
1	1	3	55	33749	1160	0.51832903863396495581	0	1	859.09562099550385028	0	NaN	NaN	0	1	1	0	1	0
1	1	3	56	3372	7046	0.51837532594799995422	1	0	1531.4413700034492649	0	121	NaN	1	0	1	0	1	0
1	1	3	57	32142	7852	0.51842162804678082466	0	1	1712.5642950049950741	0	NaN	NaN	0	1	1	0	1	0
1	1	3	58	8735	5291	0.51846791594289243221	0	1	1093.1468700000550598	0	NaN	NaN	0	1	1	0	1	0
1	1	3	59	15277	3595	0.51851421152241528034	0	0	1847.4184700025944039	0	NaN	NaN	0	0	0	1	2	0
1	1	3	60	21487	2325	0.51856050512287765741	0	1	647.37869500095257536	0	NaN	NaN	0	1	1	0	1	0
1	1	3	61	5102	4285	0.51860680303070694208	0	1	755.81505100126378238	0	NaN	NaN	0	1	1	0	1	0
1	1	3	62	63807	8561	0.51865309884306043386	0	1	1218.9658630013582297	0	NaN	NaN	0	1	1	0	1	0
1	1	3	63	65973	3014	0.51869939069729298353	1	1	1322.9270129959331825	0	95	NaN	1	1	0	1	2	0
1	1	4	1	30374	403	0.52075944351963698864	1	1	1129.8486289961147122	0	14	NaN	1	1	0	1	2	0
1	1	4	2	44981	612	0.52080575493164360523	1	1	1560.8474890032084659	0	153	NaN	1	1	0	1	2	0
1	1	4	3	70328	4687	0.52085203712340444326	0	1	1079.806136003753636	0	NaN	NaN	0	1	1	0	1	0
1	1	4	4	38219	9425	0.52089833817444741726	1	0	1835.990247993322555	0	170	NaN	1	0	1	0	1	0
1	1	4	5	26697	7750	0.52094461827073246241	0	1	1126.3930659988545813	0	NaN	NaN	0	1	1	0	1	0
1	1	4	6	63442	3194	0.52099091967102140188	0	1	781.36971099593210965	0	NaN	NaN	0	1	1	0	1	0
1	1	4	7	47675	2628	0.52103721257299184799	0	1	1759.3424000006052665	0	NaN	NaN	0	1	1	0	1	0
1	1	4	8	31221	9722	0.52108350291382521391	0	1	1102.8499940002802759	0	NaN	NaN	0	1	1	0	1	0
1	1	4	9	63807	8561	0.52112979802768677473	1	1	1002.6672530002542771	0	9	NaN	1	1	0	1	2	0
1	1	4	10	63245	2670	0.52117609733249992132	0	1	722.75417500350158662	0	NaN	NaN	0	1	1	0	1	0
1	1	4	11	43713	5109	0.52126867941115051508	0	1	840.27026900002965704	0	NaN	NaN	0	1	1	0	1	0
1	1	4	12	15523	3457	0.52131497312802821398	0	1	1376.3599540034192614	0	NaN	NaN	0	1	1	0	1	0
1	1	4	13	5034	9972	0.52136126288678497076	0	1	1079.0303120011230931	0	NaN	NaN	0	1	1	0	1	0
1	1	4	14	65415	899	0.52140757150482386351	0	1	1420.7101670035626739	0	NaN	NaN	0	1	1	0	1	0
1	1	4	15	47164	5741	0.52145385858602821827	0	1	921.16502000135369599	0	NaN	NaN	0	1	1	0	1	0
1	1	4	16	66267	3831	0.5215001481119543314	0	1	1779.6141240032739006	0	NaN	NaN	0	1	1	0	1	0
1	1	4	17	70857	3799	0.52154644101392477751	0	1	1088.2657990005100146	0	NaN	NaN	0	1	2	0	1	0
1	1	4	18	60388	2517	0.5215927420649677515	0	1	834.42284999910043553	0	NaN	NaN	0	1	1	0	1	0
1	1	4	19	49759	6504	0.52163903682958334684	0	1	1160.1211149973096326	0	NaN	NaN	0	1	1	0	1	0
1	1	4	20	15492	3548	0.52173152088653296232	0	1	2056.1729100008960813	0	NaN	NaN	0	1	1	0	1	0
1	1	4	21	38883	6399	0.52177781460341066122	0	1	1054.6794830006547272	0	NaN	NaN	0	1	1	0	1	0
1	1	4	22	36930	3095	0.5218241160036996007	0	1	1402.0564099992043339	0	NaN	NaN	0	1	1	0	1	0
1	1	4	23	19768	9021	0.52187040576245635748	0	1	2114.4897780031897128	0	NaN	NaN	0	1	1	0	1	0
1	1	4	24	38438	9121	0.52191669878084212542	0	1	1427.2596359951421618	0	NaN	NaN	0	1	1	0	1	0
1	1	4	25	32142	7852	0.52196299168281257153	1	1	839.98353700008010492	0	30	NaN	1	1	0	1	2	0
1	1	4	26	38925	1108	0.52200929529499262571	1	1	947.15885700134094805	0	109	NaN	1	1	0	1	2	0
1	1	4	27	11271	8441	0.52205558482091873884	0	1	955.87626299675321206	0	NaN	NaN	0	1	1	0	1	0
1	1	4	28	38919	9826	0.52210188261233270168	0	1	888.49655300145968795	0	NaN	NaN	0	1	1	0	1	0
1	1	4	29	1702	7559	0.52214817644562572241	0	1	878.96979400102281943	0	NaN	NaN	0	1	1	0	1	0
1	1	4	30	2115	2880	0.52224076399579644203	0	1	1290.8541290016728453	0	NaN	NaN	0	1	1	0	1	0
1	1	4	31	34945	9949	0.5222870558500289917	0	1	1832.9767089962842874	0	NaN	NaN	0	1	1	0	1	0
1	1	4	32	65256	7441	0.52233335585333406925	1	0	1577.2747090013581328	0	196	NaN	1	0	1	0	1	0
1	1	4	33	48282	4751	0.52237964246887713671	0	1	1132.0419620024040341	0	NaN	NaN	0	1	1	0	1	0
1	1	4	34	44665	5679	0.52242593956179916859	0	1	1583.9642520004417747	0	NaN	NaN	0	1	1	0	1	0
1	1	4	35	33365	9865	0.52247223502490669489	1	1	1228.1538690003799275	0	133	NaN	1	1	0	1	2	0
1	1	4	36	25545	1645	0.52251853118650615215	0	1	1214.0229609940433875	0	NaN	NaN	0	1	1	0	1	0
1	1	4	37	67100	1266	0.52256482094526290894	1	1	875.80792100197868422	0	92	NaN	1	1	0	1	2	0
1	1	4	38	37943	1549	0.52261111896950751543	0	1	1041.602945995691698	0	NaN	NaN	0	1	1	0	1	0
1	1	4	39	27359	4229	0.52265741094015538692	1	1	802.69194800348486751	0	98	NaN	1	1	0	1	2	0
1	1	4	40	38508	9562	0.52270369790494441986	0	1	940.87845200556330383	0	NaN	NaN	0	1	1	0	1	0
1	1	4	41	72444	6187	0.52279629581607878208	0	1	1803.8129790002130903	0	NaN	NaN	0	1	1	0	1	0
1	1	4	42	17682	8748	0.52284258999861776829	1	0	1707.364547997713089	0	187	NaN	1	0	1	0	1	0
1	1	4	43	42206	8374	0.52288887242320924997	0	1	1608.2157750061014667	0	NaN	NaN	0	1	1	0	1	0
1	1	4	44	42172	559	0.52293517673388123512	0	1	1758.305067996843718	0	NaN	NaN	0	1	1	0	1	0
1	1	4	45	5603	53	0.52298146986868232489	0	1	1589.7177759979967959	0	NaN	NaN	0	1	2	0	1	0
1	1	4	46	17957	8043	0.52302765974309295416	0	1	1511.4813910040538758	0	NaN	NaN	0	1	1	0	1	0
1	1	4	47	8236	8972	0.52307396021205931902	0	1	1477.9079580039251596	0	NaN	NaN	0	1	1	0	1	0
1	1	4	48	19625	5860	0.52312024903949350119	0	1	1476.4776040028664283	0	NaN	NaN	0	1	1	0	1	0
1	1	4	49	52732	3756	0.5231665527680888772	0	1	1644.2396479978924617	0	NaN	NaN	0	1	1	0	1	0
1	1	4	50	16764	4734	0.52321284380741417408	0	1	891.54614399740239605	0	NaN	NaN	0	1	1	0	1	0
1	1	4	51	55931	8985	0.52325913554523140192	0	1	1629.8621929963701405	0	NaN	NaN	0	1	1	0	1	0
1	1	4	52	48919	5862	0.52330542693380266428	0	1	1074.4221720015048049	0	NaN	NaN	0	1	1	0	1	0
1	1	4	53	63192	1681	0.52339801960624754429	0	1	1309.1821350026293658	0	NaN	NaN	0	1	1	0	1	0
1	1	4	54	46117	8054	0.52344431495293974876	1	1	866.21573799493489787	0	100	NaN	1	1	0	1	2	0
1	1	4	55	32366	1983	0.52349060657434165478	0	1	914.12677799962693825	0	NaN	NaN	0	1	1	0	1	0
1	1	4	56	63122	7973	0.52353690052404999733	0	0	2636.0854830054449849	1	NaN	NaN	0	0	1	1	2	0
1	1	4	57	46277	2469	0.52358319726772606373	0	1	2169.3189950019586831	0	NaN	NaN	0	1	1	0	1	0
1	1	4	58	21602	265	0.52362949168309569359	0	1	2602.7625910064671189	0	NaN	NaN	0	1	1	0	1	0
1	1	4	59	62303	860	0.52367578062694519758	0	1	1962.8099390029092319	0	NaN	NaN	0	1	1	0	1	0
1	1	4	60	49725	3951	0.52372207352891564369	0	1	1519.5328729969332926	0	NaN	NaN	0	1	1	0	1	0
1	1	4	61	45722	3444	0.52376836899202316999	1	1	1929.5594520008307882	0	167	NaN	1	1	0	1	2	0
1	1	4	62	5302	45	0.52381466224323958158	0	1	764.8391640032059513	0	NaN	NaN	0	1	1	0	1	0
1	1	5	1	15493	187	0.52642387046944350004	0	1	1370.4678670037537813	0	NaN	NaN	0	1	1	0	1	0
1	1	5	2	70130	6960	0.52647017000708729029	0	1	921.67769299703650177	0	NaN	NaN	0	1	1	0	1	0
1	1	5	3	28681	9857	0.52651645056903362274	0	1	948.66150100278900936	0	NaN	NaN	0	1	1	0	1	0
1	1	5	4	60313	9133	0.52656276256311684847	0	0	1556.3156520001939498	0	NaN	NaN	0	0	0	1	2	0
1	1	5	5	8384	8620	0.52660903730429708958	0	1	718.43716700095683336	0	NaN	NaN	0	1	1	0	1	0
1	1	5	6	25288	323	0.52665534697007387877	0	1	949.51270800083875656	0	NaN	NaN	0	1	1	0	1	0
1	1	5	7	63815	7974	0.52670163381844758987	0	1	1302.0129630021983758	0	NaN	NaN	0	1	1	0	1	0
1	1	5	8	35920	3060	0.52674783917609602213	0	1	1189.8816770044504665	0	NaN	NaN	0	1	1	0	1	0
1	1	5	9	49454	3271	0.52679413044825196266	0	1	1215.7972700006212108	0	NaN	NaN	0	1	1	0	1	0
1	1	5	10	8390	5081	0.52684042160399258137	0	1	1558.7814190002973191	0	NaN	NaN	0	1	1	0	1	0
1	1	5	11	46020	4741	0.52693301183171570301	0	1	1280.2734309952938929	0	NaN	NaN	0	1	1	0	1	0
1	1	5	12	1290	1085	0.52697930671274662018	0	1	1016.2829019973287359	0	NaN	NaN	0	1	1	0	1	0
1	1	5	13	47426	6570	0.52702560322359204292	0	1	1087.439625000115484	0	NaN	NaN	0	1	1	0	1	0
1	1	5	14	16764	4734	0.52707189624197781086	1	0	1420.5797350005013868	0	25	NaN	1	0	1	0	1	0
1	1	5	15	21602	265	0.52711819030810147524	1	1	825.50217700190842152	0	18	NaN	1	1	0	1	2	0
1	1	5	16	70125	2980	0.52716447680722922087	1	1	775.68048699322389439	0	116	119	1	1	0	1	2	0
1	1	5	17	45129	6150	0.52721077867317944765	0	1	973.53701999963959679	0	NaN	NaN	0	1	1	0	1	0
1	1	5	18	6559	66	0.52725707076024264097	0	1	1777.3085409935447387	0	NaN	NaN	0	1	1	0	1	0
1	1	5	19	37593	5550	0.52730336214881390333	0	1	1335.9869079940835945	0	NaN	NaN	0	1	1	0	1	0
1	1	5	20	66692	6106	0.52734966157004237175	0	0	1970.1997579977614805	0	NaN	NaN	0	0	0	1	2	0
1	1	5	21	63122	7973	0.52739595610182732344	1	1	1378.8277619969449006	0	26	NaN	1	1	0	1	2	0
1	1	5	22	68716	4401	0.52744224283378571272	0	1	1848.177415995451156	0	NaN	NaN	0	1	1	0	1	0
1	1	5	23	69035	2727	0.52753483445849269629	0	1	875.21977500000502914	0	NaN	NaN	0	1	1	0	1	0
1	1	5	24	52372	6036	0.52758112747687846422	0	0	1803.5494700015988201	0	NaN	NaN	0	0	0	1	2	0
1	1	5	25	47401	7741	0.52762742340564727783	0	1	736.41166900051757693	0	NaN	NaN	0	1	1	0	1	0
1	1	5	26	19948	2387	0.52767372212838381529	0	1	1837.3254870020900853	0	NaN	NaN	0	1	1	0	1	0
1	1	5	27	16549	7130	0.52772001433186233044	0	1	1439.5329899998614565	0	NaN	NaN	0	1	1	0	1	0
1	1	5	28	41709	6647	0.5277663057204335928	0	1	2024.0878969998448156	0	NaN	NaN	0	1	1	0	1	0
1	1	5	29	54927	5925	0.52781259152106940746	1	1	877.19176800601417199	0	118	NaN	1	1	0	1	2	0
1	1	5	30	58350	3686	0.52785888197831809521	0	1	1527.0022440017783083	0	NaN	NaN	0	1	1	0	1	0
1	1	5	31	70336	970	0.52790518384426832199	1	0	1777.6628610008629039	0	153	NaN	1	0	1	0	1	0
1	1	5	32	16724	201	0.52795148023869842291	0	1	1172.1974449974368326	0	NaN	NaN	0	1	1	0	1	0
1	1	5	33	70328	4687	0.52799767372198402882	1	1	1212.7520699941669591	0	91	NaN	1	1	0	1	2	0
1	1	5	34	19948	2387	0.52809026755858212709	1	1	808.98054199496982619	0	7	NaN	1	1	0	1	2	0
1	1	5	35	61948	6349	0.52813656069338321686	0	1	866.63400399993406609	0	NaN	NaN	0	1	1	0	1	0
1	1	5	36	15523	3457	0.52818285359535366297	1	1	1119.0381429987610318	0	85	NaN	1	1	0	1	2	0
1	1	5	37	23642	5237	0.52822914603166282177	0	1	882.71989100030623376	0	NaN	NaN	0	1	1	0	1	0
1	1	5	38	23642	5237	0.52827544056344777346	1	1	648.89690499694552273	0	0	NaN	1	1	0	1	2	0
1	1	5	39	33484	5169	0.52832173742353916168	1	1	792.86712699831696227	0	180	222	1	1	0	1	2	0
1	1	5	40	2738	2284	0.52836803020909428596	0	1	2222.4796699956641532	0	NaN	NaN	0	1	1	0	1	0
1	1	5	41	48203	4210	0.52841431868728250265	0	0	1291.4003819969366305	0	NaN	NaN	0	0	0	1	2	0
1	1	5	42	11783	3597	0.52846061310265213251	0	1	1283.9348169945878908	0	NaN	NaN	0	1	1	0	1	0
1	1	5	43	15239	2768	0.52855320682283490896	0	1	2340.8051840015104972	0	NaN	NaN	0	1	1	0	1	0
1	1	5	44	6117	5714	0.52859950030688196421	0	1	1676.7873589997179806	0	NaN	NaN	0	1	1	0	1	0
1	1	5	45	32142	7852	0.5286457935580983758	1	1	672.44361199846025556	0	81	112	1	1	0	1	2	0
1	1	5	46	47762	9788	0.52869208401534706354	0	1	951.6105419970699586	0	NaN	NaN	0	1	1	0	1	0
1	1	5	47	38041	9094	0.52873838588129729033	0	1	1458.3249649949721061	0	NaN	NaN	0	1	1	0	1	0
1	1	5	48	43859	2607	0.52878467598930001259	0	1	1508.7712530003045686	0	NaN	NaN	0	1	1	0	1	0
1	1	5	49	57751	9272	0.52883097133599221706	0	1	1337.765331998525653	0	NaN	NaN	0	1	1	0	1	0
1	1	5	50	70955	5192	0.52887725690379738808	0	1	1418.3430400007637218	0	NaN	NaN	0	1	1	0	1	0
1	1	5	51	35853	7185	0.52892355329822748899	0	0	2132.0858179969945922	0	NaN	NaN	0	0	0	1	2	0
1	1	5	52	13001	6581	0.52896984899416565895	0	1	1330.5397840013029054	0	NaN	NaN	0	1	1	0	1	0
1	1	5	53	52604	1492	0.52901615144219249487	0	1	1659.9373019998893142	0	NaN	NaN	0	1	1	0	1	0
1	1	5	54	52652	2196	0.52906244213227182627	0	1	1417.536433000350371	0	NaN	NaN	0	1	1	0	1	0
1	1	5	55	23497	7998	0.52915502956602722406	0	1	1589.4104840044747107	0	NaN	NaN	0	1	2	0	1	0
1	1	5	56	40576	531	0.52920131885912269354	0	1	1386.3460590000613593	0	NaN	NaN	0	1	1	0	1	0
1	1	5	57	32143	6520	0.52924752223771065474	0	1	1387.8131710007437505	0	NaN	NaN	0	1	1	0	1	0
1	1	5	58	46858	3898	0.52929381444118916988	0	1	1311.1040810035774484	0	NaN	NaN	0	1	1	0	1	0
1	1	5	59	18557	9743	0.52934011036995798349	0	1	1419.3029429952730425	0	NaN	NaN	0	1	1	0	1	0
1	1	5	60	7025	2430	0.52938639605417847633	0	1	1560.397742003260646	0	NaN	NaN	0	1	1	0	1	0
1	1	5	61	50103	3694	0.52943269489333033562	1	0	1546.8582290050107986	0	214	NaN	1	0	1	0	1	0
1	1	5	62	15492	3548	0.52947898407001048326	1	1	1093.9013729948783293	0	103	NaN	1	1	0	1	2	0
1	1	5	63	22925	1939	0.52952528477180749178	0	0	1771.031385003880132	0	NaN	NaN	0	0	0	1	2	0
1	1	6	1	7096	1129	0.5314571731723845005	0	1	1076.9651040027383715	0	NaN	NaN	0	1	1	0	1	0
1	1	6	2	33209	3996	0.53150347096379846334	0	1	701.42511100129922852	0	NaN	NaN	0	1	1	0	1	0
1	1	6	3	70655	5160	0.53154975955840200186	0	1	784.09725900564808398	0	NaN	NaN	0	1	2	0	1	0
1	1	6	4	23878	2539	0.53159606701228767633	0	0	1839.129343003151007	0	NaN	NaN	0	0	0	1	2	0
1	1	6	5	51147	5155	0.53164234815631061792	0	1	817.3757360054878518	0	NaN	NaN	0	1	1	0	1	0
1	1	6	6	28400	3647	0.53168864792678505182	0	1	1049.6043979946989566	0	NaN	NaN	0	1	1	0	1	0
1	1	6	7	4022	7233	0.53173493733629584312	0	1	965.36318700236734003	0	NaN	NaN	0	1	1	0	1	0
1	1	6	8	23749	5772	0.5317811332643032074	1	0	2033.4466430067550391	0	234	NaN	1	0	1	0	1	0
1	1	6	9	45373	5761	0.5318274209275841713	0	1	1255.8756700018420815	0	NaN	NaN	0	1	1	0	1	0
1	1	6	10	40478	9964	0.53187372419051826	0	1	1187.3919719946570694	0	NaN	NaN	0	1	1	0	1	0
1	1	6	11	19145	3903	0.53192001639399677515	0	0	2222.5899149998440407	0	NaN	NaN	0	0	0	1	2	0
1	1	6	12	11034	9657	0.53196631558239459991	0	1	1085.8254289996693842	0	NaN	NaN	0	1	1	0	1	0
1	1	6	13	37833	1808	0.53205889894161373377	0	1	1584.7815179949975573	0	NaN	NaN	0	1	1	0	1	0
1	1	6	14	18591	3036	0.53210518404375761747	0	0	1381.7862939977203496	0	NaN	NaN	0	0	0	1	2	0
1	1	6	15	14759	9484	0.53215149149764329195	0	1	1204.0072160016279668	0	NaN	NaN	0	1	1	0	1	0
1	1	6	16	37021	4025	0.53219778300262987614	1	1	772.40052600245689973	0	155	156	1	1	0	1	2	0
1	1	6	17	49205	6068	0.53224407625384628773	0	1	945.4290730063803494	0	NaN	NaN	0	1	1	0	1	0
1	1	6	18	15592	5418	0.53229036228731274605	0	1	1371.4474660009727813	0	NaN	NaN	0	1	1	0	1	0
1	1	6	19	8668	4005	0.53233666555024683475	0	1	1858.9801420021103695	0	NaN	NaN	0	1	1	0	1	0
1	1	6	20	4266	9960	0.5323829577537253499	0	1	1383.5639469980378635	0	NaN	NaN	0	1	1	0	1	0
1	1	6	21	6363	6726	0.53242925333324819803	1	1	803.01605700515210629	0	193	NaN	1	1	0	1	2	0
1	1	6	22	10114	2504	0.53247554530389606953	0	1	1274.6272059957846068	0	NaN	NaN	0	1	1	0	1	0
1	1	6	23	63708	2735	0.53256813471671193838	0	1	815.29191600566264242	0	NaN	NaN	0	1	1	0	1	0
1	1	6	24	28691	8174	0.53261443309020251036	0	1	875.16560799849685282	0	NaN	NaN	0	1	1	0	1	0
1	1	6	25	60378	7260	0.53266072343103587627	0	1	872.52186200203141198	0	NaN	NaN	0	1	1	0	1	0
1	1	6	26	42384	5558	0.53270701842848211527	0	1	1582.4433359957765788	0	NaN	NaN	0	1	1	0	1	0
1	1	6	27	42385	7780	0.53275331167969852686	0	1	1458.4663970017572865	0	NaN	NaN	0	1	1	0	1	0
1	1	6	28	29700	1014	0.53279959806241095066	0	1	1404.6521870041033253	0	NaN	NaN	0	1	1	0	1	0
1	1	6	29	410	3638	0.53284590085968375206	0	1	1609.0870369953336194	0	NaN	NaN	0	1	1	0	1	0
1	1	6	30	68509	6843	0.53289219411090016365	1	0	1189.6551190002355725	0	240	NaN	1	0	2	0	1	0
1	1	6	31	2885	9313	0.53293848899193108082	0	1	1402.6277369994204491	0	NaN	NaN	0	1	1	0	1	0
1	1	6	32	10450	1702	0.5329847774701192975	0	1	902.90167299826862291	0	NaN	NaN	0	1	1	0	1	0
1	1	6	33	45596	616	0.53303097188472747803	0	0	2402.3959149999427609	1	NaN	NaN	0	0	1	1	2	0
1	1	6	34	54569	3640	0.53307727235369384289	0	1	1290.5535390018485487	0	NaN	NaN	0	1	1	0	1	0
1	1	6	35	59598	8318	0.53316986060235649347	0	1	1302.4868950014933944	0	NaN	NaN	0	1	1	0	1	0
1	1	6	36	19379	9017	0.53321615979075431824	0	1	1573.6250580011983402	0	NaN	NaN	0	1	1	0	1	0
1	1	6	37	19986	9347	0.53326244303025305271	0	1	1479.6481349985697307	0	NaN	NaN	0	1	1	0	1	0
1	1	6	38	37182	5238	0.53330874862149357796	0	1	1548.9383710009860806	0	NaN	NaN	0	1	1	0	1	0
1	1	6	39	57550	6246	0.53335503942798823118	0	1	1356.8760729976929724	0	NaN	NaN	0	1	1	0	1	0
1	1	6	40	63442	3194	0.53340133139863610268	1	1	1224.7542559998692013	0	158	NaN	1	1	0	1	2	0
1	1	6	41	53053	727	0.53344762325286865234	1	0	784.57779999735066667	0	297	NaN	1	0	1	0	1	0
1	1	6	42	68747	6311	0.53349392127711325884	0	1	1034.6159030013950542	0	NaN	NaN	0	1	1	0	1	0
1	1	6	43	17897	8935	0.53354021557606756687	1	1	904.08989899879088625	0	189	NaN	1	1	0	1	2	0
1	1	6	44	9918	116	0.53363280452322214842	0	1	2236.10396000003675	0	NaN	NaN	0	1	1	0	1	0
1	1	6	45	15308	2297	0.53367909707594662905	0	0	2045.2167120020021684	0	NaN	NaN	0	0	0	1	2	0
1	1	6	46	17320	3293	0.53372539265546947718	0	1	1453.3885199998621829	0	NaN	NaN	0	1	1	0	1	0
1	1	6	47	26599	351	0.53377168683800846338	0	1	1302.7012239981559105	0	NaN	NaN	0	1	1	0	1	0
1	1	6	48	71874	2336	0.53381797519978135824	0	1	1203.6057320001418702	0	NaN	NaN	0	1	1	0	1	0
1	1	6	49	21602	265	0.53386427275836467743	1	1	814.72461099474458024	0	96	115	1	1	0	1	2	0
1	1	6	50	34945	9949	0.53391057217959314585	1	1	1802.755960998183582	0	143	NaN	1	1	0	1	2	0
1	1	6	51	15592	5418	0.53395686333533376455	1	1	886.5421629961929284	0	32	NaN	1	1	0	1	2	0
1	1	6	52	58406	6017	0.53400314867030829191	0	1	990.14872199768433347	0	NaN	NaN	0	1	1	0	1	0
1	1	6	53	1083	8280	0.53409574588295072317	0	1	814.21120600134599954	0	NaN	NaN	0	1	1	0	1	0
1	1	6	54	66288	9965	0.53414203983265906572	0	1	1340.4675030033104122	0	NaN	NaN	0	1	1	0	1	0
1	1	6	55	55444	8516	0.53418833168689161539	0	1	2454.8228140047285706	0	NaN	NaN	0	1	1	0	1	0
1	1	6	56	46117	8054	0.53423452540300786495	1	1	683.46764599846210331	0	126	227	1	1	0	1	2	0
1	1	6	57	67100	1266	0.53428082691971212626	1	1	773.39135799411451444	0	144	237	1	1	0	1	2	0
1	1	6	58	49398	8093	0.53432711795903742313	0	1	907.50147499784361571	0	NaN	NaN	0	1	1	0	1	0
1	1	6	59	22461	8498	0.53437341446988284588	0	1	1403.9526229971670546	0	NaN	NaN	0	1	1	0	1	0
1	1	6	60	46277	2469	0.53441971063148230314	1	1	905.5412419984349981	0	127	NaN	1	1	0	1	2	0
1	1	6	61	60306	830	0.53446600283496081829	0	1	1453.4730649975244887	0	NaN	NaN	0	1	1	0	1	0
1	1	6	62	51228	6274	0.53451229177881032228	1	1	1384.894005001115147	0	224	NaN	1	1	0	1	2	0
1	1	7	1	28691	8174	0.53642498620320111513	1	1	861.13792299875058234	0	38	NaN	1	1	0	1	2	0
1	1	7	2	71318	4615	0.53647128655575215816	0	1	830.80575500207487494	0	NaN	NaN	0	1	1	0	1	0
1	1	7	3	63888	2736	0.53651757410261780024	0	1	903.67956599948229268	0	NaN	NaN	0	1	1	0	1	0
1	1	7	4	44086	5200	0.5365638810908421874	1	0	923.75809700024547055	0	291	NaN	1	0	1	0	1	0
1	1	7	5	12483	2330	0.53661016386467963457	0	1	1003.1616190026397817	0	NaN	NaN	0	1	1	0	1	0
1	1	7	6	71621	4470	0.53665648074820637703	0	1	1000.2497989989933558	0	NaN	NaN	0	1	1	0	1	0
1	1	7	7	45319	4068	0.53670275688637048006	1	1	1252.2703380018356256	0	304	NaN	1	1	0	1	2	0
1	1	7	8	53376	5858	0.53674905200023204088	0	1	1132.3733880053623579	0	NaN	NaN	0	1	1	0	1	0
1	1	7	9	52866	1538	0.5367953440872952342	1	0	887.29126999533036724	0	300	NaN	1	0	1	0	1	0
1	1	7	10	60747	6560	0.53688793315086513758	0	1	1242.7484209983958863	0	NaN	NaN	0	1	1	0	1	0
1	1	7	11	50594	8283	0.53693423268850892782	0	1	1302.5459620039328001	0	NaN	NaN	0	1	1	0	1	0
1	1	7	12	70655	5160	0.5369805159280076623	1	1	1020.9464420040603727	0	70	NaN	1	1	0	1	2	0
1	1	7	13	17320	3293	0.53702681954018771648	1	1	976.33608100295532495	0	28	NaN	1	1	0	1	2	0
1	1	7	14	34012	5965	0.53707310138270258904	1	1	1279.1823519946774468	0	218	NaN	1	1	0	1	2	0
1	1	7	15	36264	2408	0.53711941314395517111	0	1	1014.6774940003524534	0	NaN	NaN	0	1	1	0	1	0
1	1	7	16	37016	9667	0.53716569580137729645	1	0	1322.6052820027689449	0	214	NaN	1	0	1	0	1	0
1	1	7	17	35804	1866	0.53721200325526297092	1	1	1500.8980229977169074	0	222	NaN	1	1	0	1	2	0
1	1	7	18	59794	3342	0.53725827648304402828	0	1	1917.9705720016499981	0	NaN	NaN	0	1	1	0	1	0
1	1	7	19	29700	1014	0.53730458719655871391	1	1	842.42996399552794173	0	52	NaN	1	1	0	1	2	0
1	1	7	20	39921	7951	0.53739717265125364065	0	1	1301.0064999980386347	0	NaN	NaN	0	1	1	0	1	0
1	1	7	21	25390	4784	0.53744345658924430609	0	1	1316.3132330009830184	0	NaN	NaN	0	1	1	0	1	0
1	1	7	22	28128	5660	0.53748975601047277451	0	1	1066.139039998233784	0	NaN	NaN	0	1	1	0	1	0
1	1	7	23	42440	8315	0.53753604856319725513	0	1	1442.290705002960749	0	NaN	NaN	0	1	1	0	1	0
1	1	7	24	16626	1098	0.53758234938140958548	0	1	1581.2897050054743886	0	NaN	NaN	0	1	1	0	1	0
1	1	7	25	63773	1431	0.53762862796429544687	0	1	1309.0031359970453195	0	NaN	NaN	0	1	1	0	1	0
1	1	7	26	53376	5858	0.53767493180930614471	1	1	1231.2952889988082461	0	17	NaN	1	1	0	1	2	0
1	1	7	27	48567	2848	0.5377212172606959939	0	1	1042.1956209975178353	0	NaN	NaN	0	1	1	0	1	0
1	1	7	28	4787	36	0.53776752285193651915	0	1	1171.5198870006133802	0	NaN	NaN	0	1	2	0	1	0
1	1	7	29	31529	6866	0.53781381051521748304	0	1	1717.5220619974425063	0	NaN	NaN	0	1	1	0	1	0
1	1	7	30	16626	1098	0.53786011505872011185	1	1	851.37062300054822117	0	5	NaN	1	1	0	1	2	0
1	1	7	31	42440	8315	0.53790640213992446661	1	1	675.44290299701970071	0	7	NaN	1	1	0	1	2	0
1	1	7	32	55662	5663	0.53795270132832229137	0	1	927.644015995610971	0	NaN	NaN	0	1	1	0	1	0
1	1	7	33	4562	2218	0.53799899399746209383	0	1	989.33049300103448331	0	NaN	NaN	0	1	2	0	1	0
1	1	7	34	53376	5858	0.53809147852007299662	1	1	821.48394999967422336	0	7	25	1	1	0	1	2	0
1	1	7	35	57751	9272	0.53813777584582567215	1	1	903.71737300301901996	0	110	NaN	1	1	0	1	2	0
1	1	7	36	32697	8216	0.53818406385835260153	0	1	803.94358999910764396	0	NaN	NaN	0	1	1	0	1	0
1	1	7	37	67820	7520	0.53823036258108913898	0	1	872.36520900478353724	0	NaN	NaN	0	1	1	0	1	0
1	1	7	38	19011	5919	0.53827665746212005615	0	1	1652.1267790012643673	0	NaN	NaN	0	1	1	0	1	0
1	1	7	39	38937	2451	0.53832294349558651447	0	0	2287.8164389985613525	0	NaN	NaN	0	0	0	1	2	0
1	1	7	40	71316	9575	0.5383692494360730052	0	1	1039.4825379989924841	0	NaN	NaN	0	1	1	0	1	0
1	1	7	41	12483	2330	0.5384155370993539691	1	1	983.4061780056799762	0	35	NaN	1	1	0	1	2	0
1	1	7	42	62429	7310	0.53846183407586067915	0	1	1404.0113980008754879	0	NaN	NaN	0	1	1	0	1	0
1	1	7	43	14430	8175	0.53850812593009322882	0	1	1184.3165019963635132	0	NaN	NaN	0	1	1	0	1	0
1	1	7	44	60986	2259	0.53855442244093865156	1	1	978.98844000155804679	0	274	NaN	1	1	0	1	2	0
1	1	7	45	68716	4401	0.53860071999952197075	1	0	1520.398667998961173	0	147	NaN	1	0	1	0	1	0
1	1	7	46	64920	3902	0.53869330615270882845	1	0	1382.5176500031375326	0	396	NaN	1	0	1	0	1	0
1	1	7	47	55713	9335	0.53873959847260266542	0	1	2068.9852349969442002	0	NaN	NaN	0	1	1	0	1	0
1	1	7	48	47288	2760	0.53878589277155697346	0	1	1493.0245409996132366	0	NaN	NaN	0	1	1	0	1	0
1	1	7	49	58406	6017	0.53883218776900321245	1	1	989.45130799984326586	0	58	NaN	1	1	0	1	2	0
1	1	7	50	24084	8170	0.53887848288286477327	0	1	754.36347299546469003	0	NaN	NaN	0	1	1	0	1	0
1	1	7	51	18194	5262	0.53892477613408118486	0	1	902.76806799374753609	0	NaN	NaN	0	1	1	0	1	0
1	1	7	52	18194	5262	0.53897106426302343607	1	1	558.84238200087565929	0	0	NaN	1	1	0	1	2	0
1	1	7	53	71874	2336	0.53901735611725598574	1	1	840.13139899616362527	0	66	NaN	1	1	0	1	2	0
1	1	7	54	7635	3862	0.53906365728471428156	0	1	1073.1926719963666983	0	NaN	NaN	0	1	1	0	1	0
1	1	7	55	33259	8482	0.53915624634828418493	0	1	833.09678400109987706	0	NaN	NaN	0	1	1	0	1	0
1	1	7	56	35467	9525	0.53920254064723849297	0	1	830.84845200210111216	0	NaN	NaN	0	1	1	0	1	0
1	1	7	57	683	3450	0.53924873762298375368	0	1	977.73048999806633219	0	NaN	NaN	0	1	1	0	1	0
1	1	7	58	5119	6692	0.53929502435494214296	1	1	2212.6502820028690621	1	254	NaN	1	1	1	2	2	0
1	1	7	59	19182	230	0.53934132633730769157	0	1	749.60415399982593954	0	NaN	NaN	0	1	1	0	1	0
1	1	7	60	33975	5967	0.53938761272002011538	0	1	1207.5237790049868636	0	NaN	NaN	0	1	1	0	1	0
1	1	7	61	63473	7856	0.53943391190841794014	0	1	1115.5276860008598305	0	NaN	NaN	0	1	1	0	1	0
1	1	7	62	21032	8586	0.53948020446114242077	0	1	902.4001209982088767	0	NaN	NaN	0	1	1	0	1	0
1	1	7	63	16549	7130	0.53952649992424994707	1	1	1303.331679999246262	0	160	NaN	1	1	0	1	2	0
1	1	8	1	58423	8109	0.54132056713569909334	0	1	963.84383200347656384	0	NaN	NaN	0	1	1	0	1	0
1	1	8	2	6559	66	0.54136686434503644705	1	1	1402.3141280049458146	0	171	NaN	1	1	0	1	2	0
1	1	8	3	72081	992	0.5414131565485149622	0	1	869.64342999999644235	0	NaN	NaN	0	1	1	0	1	0
1	1	8	4	29037	2986	0.54145946074277162552	0	1	773.02577700174879283	0	NaN	NaN	0	1	1	0	1	0
1	1	8	5	34001	1192	0.54150574386585503817	0	1	1245.2550710004288703	0	NaN	NaN	0	1	1	0	1	0
1	1	8	6	60790	5568	0.54155204608105123043	0	1	1334.4065790006425232	0	NaN	NaN	0	1	1	0	1	0
1	1	8	7	18493	2203	0.54159833432640880346	0	1	722.98244699777569622	0	NaN	NaN	0	1	1	0	1	0
1	1	8	8	35853	7185	0.54164462978951632977	1	1	1485.405305000313092	0	144	NaN	1	1	0	1	2	0
1	1	8	9	10785	4001	0.54169092630036175251	0	1	1705.1852919976226985	0	NaN	NaN	0	1	1	0	1	0
1	1	8	10	5102	4285	0.54178351222071796656	1	1	2202.6367100042989478	0	261	NaN	1	1	0	1	2	0
1	1	8	11	36068	475	0.54182983655482530594	0	1	751.11433499841950834	0	NaN	NaN	0	1	1	0	1	0
1	1	8	12	4777	7336	0.5418760933680459857	1	1	1008.0818950009415857	0	323	NaN	1	1	0	1	2	0
1	1	8	13	50645	1800	0.54192243225406855345	0	1	1402.4609560001408681	0	NaN	NaN	0	1	1	0	1	0
1	1	8	14	38438	9121	0.54196868313010782003	1	1	1745.8868469984736294	0	239	NaN	1	1	0	1	2	0
1	1	8	15	54112	7428	0.54201502969954162836	0	1	1199.1367869995883666	0	NaN	NaN	0	1	1	0	1	0
1	1	8	16	55662	5663	0.54206126951612532139	1	1	807.96256800385890529	0	46	NaN	1	1	0	1	2	0
1	1	8	17	2050	6579	0.54210762458387762308	0	0	2186.2595419952413067	0	NaN	NaN	0	0	0	1	2	0
1	1	8	18	65403	7917	0.54215386055875569582	0	0	1957.7476410049712285	1	NaN	NaN	0	0	1	1	2	0
1	1	8	19	52732	3756	0.5422002207487821579	1	1	756.7813040004693903	0	219	NaN	1	1	0	1	2	0
1	1	8	20	66692	6106	0.54229282087180763483	1	1	802.8778470034012571	0	187	NaN	1	1	0	1	2	0
1	1	8	21	46134	2186	0.54233904113061726093	0	1	762.32432699907803908	0	NaN	NaN	0	1	1	0	1	0
1	1	8	22	71318	4615	0.54238541575614362955	1	1	769.14271699934033677	0	82	NaN	1	1	0	1	2	0
1	1	8	23	63728	4306	0.54243162425700575113	0	1	1404.5704069940256886	0	NaN	NaN	0	1	1	0	1	0
1	1	8	24	33243	5523	0.54247799853328615427	0	1	1711.3872129993978888	0	NaN	NaN	0	1	1	0	1	0
1	1	8	25	63815	7974	0.54252422077115625143	1	1	979.46519299875944853	0	205	NaN	1	1	0	1	2	0
1	1	8	26	25278	1196	0.54257060389500111341	0	1	1477.572251002129633	0	NaN	NaN	0	1	1	0	1	0
1	1	8	27	51993	9718	0.54261680354829877615	1	0	1831.5608530028839596	0	317	NaN	1	0	1	0	1	0
1	1	8	28	59712	9244	0.54266319109592586756	0	1	1522.3344929981976748	0	NaN	NaN	0	1	1	0	1	0
1	1	8	29	2793	2604	0.54270939365960657597	0	1	1525.5947160039795563	0	NaN	NaN	0	1	1	0	1	0
1	1	8	30	68384	4793	0.54275579424574971199	0	1	1626.8300609954167157	0	NaN	NaN	0	1	1	0	1	0
1	1	8	31	71754	988	0.54284839145839214325	0	1	1697.5453990016831085	0	NaN	NaN	0	1	1	0	1	0
1	1	8	32	68639	5894	0.54289457760751247406	0	1	1225.2526890006265603	0	NaN	NaN	0	1	1	0	1	0
1	1	8	33	5632	1732	0.54294098145328462124	0	1	1179.0526949989725836	0	NaN	NaN	0	1	3	0	1	0
1	1	8	34	37530	6066	0.54298716189805418253	0	1	1363.6542999956873246	0	NaN	NaN	0	1	1	0	1	0
1	1	8	35	1234	7020	0.54303336062002927065	0	1	1151.7862300024717115	0	NaN	NaN	0	1	1	0	1	0
1	1	8	36	70802	9798	0.54307965352199971676	0	1	820.80120799946598709	0	NaN	NaN	0	1	1	0	1	0
1	1	8	37	49755	1771	0.54312594246584922075	0	1	960.58684599847765639	0	NaN	NaN	0	1	1	0	1	0
1	1	8	38	14698	5382	0.54317224107217043638	0	1	923.82843000086722896	0	NaN	NaN	0	1	1	0	1	0
1	1	8	39	55209	8917	0.5432185266399756074	0	1	1191.7431670008227229	0	NaN	NaN	0	1	1	0	1	0
1	1	8	40	68747	6311	0.54326482838951051235	1	1	1454.5984310025232844	0	122	NaN	1	1	0	1	2	0
1	1	8	41	41854	5514	0.54331111744977533817	0	1	725.04152000328758731	0	NaN	NaN	0	1	1	0	1	0
1	1	8	42	1401	3924	0.54340371175203472376	0	1	912.28092800156446174	0	NaN	NaN	0	1	1	0	1	0
1	1	8	43	2793	2604	0.54345000244211405516	1	1	802.05405900051118806	0	13	NaN	1	1	0	1	2	0
1	1	8	44	34001	1192	0.54349630151409655809	1	1	732.96463499718811363	0	38	NaN	1	1	0	1	2	0
1	1	8	45	33139	2755	0.54354259651154279709	0	1	929.41946400242159143	0	NaN	NaN	0	1	1	0	1	0
1	1	8	46	29600	9761	0.5435888803331181407	0	1	1414.9658629976329394	0	NaN	NaN	0	1	1	0	1	0
1	1	8	47	43935	1968	0.54363518022000789642	0	1	1069.307243000366725	0	NaN	NaN	0	1	1	0	1	0
1	1	8	48	1702	7559	0.5436814755667001009	1	1	816.0753750053117983	0	268	NaN	1	1	0	1	2	0
1	1	8	49	64713	1551	0.5437277740566059947	0	1	927.49333899701014161	0	NaN	NaN	0	1	1	0	1	0
1	1	8	50	16149	6666	0.54377406404819339514	1	0	2169.0352570003597066	0	336	NaN	1	0	1	0	1	0
1	1	8	51	24084	8170	0.54382035508751869202	1	1	802.60194099537329748	0	63	NaN	1	1	0	1	2	0
1	1	8	52	52732	3756	0.54386665311176329851	1	1	653.68979200138710439	0	32	252	1	1	0	1	2	0
1	1	8	53	11657	2262	0.54391294415108859539	0	1	1403.2339059995138086	0	NaN	NaN	0	1	1	0	1	0
1	1	8	54	25390	4784	0.54395924031268805265	1	1	1156.5103940010885708	0	95	NaN	1	1	0	1	2	0
1	1	8	55	6117	5714	0.54405182425398379564	1	1	713.95818800374399871	0	198	NaN	1	1	0	1	2	0
1	1	8	56	38925	1108	0.54409812251105904579	1	1	702.81549300125334412	0	279	389	1	1	0	1	2	0
1	1	8	57	46953	1224	0.54414441715925931931	0	0	761.98849800130119547	0	NaN	NaN	0	0	0	1	2	0
1	1	8	58	29401	9934	0.54419071529991924763	0	0	3000.4373729971121065	1	NaN	NaN	0	0	1	1	2	0
1	1	8	59	16828	1317	0.54423700598999857903	0	1	1216.3927880028495565	0	NaN	NaN	0	1	1	0	1	0
1	1	8	60	58145	805	0.544283298309892416	0	1	885.61452899739379063	0	NaN	NaN	0	1	1	0	1	0
1	1	8	61	55739	5274	0.54432949749752879143	0	1	789.29770900140283629	0	NaN	NaN	0	1	1	0	1	0
1	1	8	62	5661	5350	0.54437579226214438677	0	1	646.29511100065428764	0	NaN	NaN	0	1	1	0	1	0
1	1	9	1	11657	2262	0.54689317417796701193	1	1	969.42755900090560317	0	9	NaN	1	1	0	1	2	0
1	1	9	2	57550	6246	0.5469395096879452467	1	1	634.07822499721078202	0	149	NaN	1	1	0	1	2	0
1	1	9	3	57751	9272	0.54698576487135142088	1	1	622.92629600415239111	0	92	203	1	1	0	1	2	0
1	1	9	4	46020	4741	0.5470321079483255744	1	1	801.43676499574212357	0	242	NaN	1	1	0	1	2	0
1	1	9	5	11943	145	0.547078355448320508	0	1	1319.2526629936764948	0	NaN	NaN	0	1	1	0	1	0
1	1	9	6	59635	6367	0.54712470376398414373	0	1	1167.3304400028428063	0	NaN	NaN	0	1	1	0	1	0
1	1	9	7	15492	3548	0.5471709428820759058	1	1	738.02859699935652316	0	194	298	1	1	0	1	2	0
1	1	9	8	32497	2752	0.54721729853190481663	0	1	1360.9084409981733188	0	NaN	NaN	0	1	1	0	1	0
1	1	9	9	19182	230	0.54726352798752486706	1	1	830.70988100371323526	0	74	NaN	1	1	0	1	2	0
1	1	9	10	14874	9922	0.54730989551171660423	0	0	1395.7818970011430793	0	NaN	NaN	0	0	0	1	2	0
1	1	9	11	49749	5889	0.54735612019430845976	0	1	817.93388100049924105	0	NaN	NaN	0	1	1	0	1	0
1	1	9	12	39419	2377	0.54740247840527445078	0	1	996.53822300024330616	0	NaN	NaN	0	1	1	0	1	0
1	1	9	13	52604	1492	0.54744869749993085861	1	1	1081.9995150013710372	0	209	NaN	1	1	0	1	2	0
1	1	9	14	63442	3194	0.54754129215143620968	1	1	705.34866199886891991	0	160	319	1	1	0	1	2	0
1	1	9	15	71262	1899	0.54758767166640609503	0	1	826.37171300302725285	0	NaN	NaN	0	1	1	0	1	0
1	1	9	16	31061	9049	0.54763388505671173334	0	1	2051.4566769998054951	0	NaN	NaN	0	1	1	0	1	0
1	1	9	17	8390	5081	0.54768026689998805523	1	1	1174.0447490010410547	0	256	NaN	1	1	0	1	2	0
1	1	9	18	28691	8174	0.54772647237405180931	1	1	682.73503099771915004	0	141	180	1	1	0	1	2	0
1	1	9	19	28711	1624	0.54777286096941679716	0	1	1335.9580489996005781	0	NaN	NaN	0	1	1	0	1	0
1	1	9	20	38818	511	0.54781906120479106903	0	0	931.38648600142914802	0	NaN	NaN	0	0	0	1	2	0
1	1	9	21	14476	4420	0.54786535946186631918	0	1	1285.7396000035805628	0	NaN	NaN	0	1	1	0	1	0
1	1	9	22	13224	5745	0.5479116442147642374	0	1	1718.2501980059896596	0	NaN	NaN	0	1	1	0	1	0
1	1	9	23	16303	3492	0.54795784177258610725	0	1	1030.0399780026054941	0	NaN	NaN	0	1	1	0	1	0
1	1	9	24	66490	919	0.54800414107739925385	0	1	1120.9525380036211573	0	NaN	NaN	0	1	1	0	1	0
1	1	9	25	40069	5733	0.54809673107229173183	0	1	735.9483819964225404	0	NaN	NaN	0	1	1	0	1	0
1	1	9	26	71759	8542	0.54814302013255655766	0	1	860.56962300062878057	0	NaN	NaN	0	1	1	0	1	0
1	1	9	27	11104	2220	0.54818931466434150934	0	1	1617.7720799969392829	0	NaN	NaN	0	1	1	0	1	0
1	1	9	28	71233	984	0.54823561047669500113	0	1	1810.7785620013601147	0	NaN	NaN	0	1	1	0	1	0
1	1	9	29	15537	7057	0.54828190081752836704	0	1	1119.0364389985916205	0	NaN	NaN	0	1	1	0	1	0
1	1	9	30	15159	5896	0.54832819511648267508	0	1	1538.6229200012166984	0	NaN	NaN	0	1	1	0	1	0
1	1	9	31	52233	7390	0.54837448406033217907	0	1	1550.8741440062294714	0	NaN	NaN	0	1	1	0	1	0
1	1	9	32	58170	5139	0.54842078720685094595	0	1	1554.8720340011641383	0	NaN	NaN	0	1	1	0	1	0
1	1	9	33	61882	2320	0.54846707906108349562	0	1	902.66609999525826424	0	NaN	NaN	0	1	1	0	1	0
1	1	9	34	62406	6169	0.54851337207946926355	0	1	2432.9052629982470535	0	NaN	NaN	0	1	1	0	1	0
1	1	9	35	18040	4523	0.54855966940522193909	1	1	1936.5606669962289743	0	522	NaN	1	1	0	1	2	0
1	1	9	36	29510	7240	0.54865225788671523333	0	1	1349.6493189959437586	0	NaN	NaN	0	1	1	0	1	0
1	1	9	37	21954	6069	0.54869855230208486319	0	0	2407.2661509999306872	0	NaN	NaN	0	0	0	1	2	0
1	1	9	38	13114	6817	0.5487448452040553093	0	1	904.03958399838302284	0	NaN	NaN	0	1	1	0	1	0
1	1	9	39	61882	2320	0.54879113950300961733	1	1	702.73623400134965777	0	5	NaN	1	1	0	1	2	0
1	1	9	40	49725	3951	0.54883742821402847767	1	1	1829.9570689996471629	0	291	NaN	1	1	0	1	2	0
1	1	9	41	42037	7568	0.54888372903224080801	0	1	939.81158400129061192	0	NaN	NaN	0	1	1	0	1	0
1	1	9	42	12387	7447	0.54893002042081207037	0	1	1214.2383969985530712	0	NaN	NaN	0	1	1	0	1	0
1	1	9	43	67809	6540	0.54897631506901234388	0	1	1029.7337259980849922	0	NaN	NaN	0	1	1	0	1	0
1	1	9	44	16499	2255	0.54902261123061180115	0	1	1758.7184009971679188	0	NaN	NaN	0	1	1	0	1	0
1	1	9	45	7304	9088	0.54911519994493573904	0	1	1034.4046050013275817	0	NaN	NaN	0	1	1	0	1	0
1	1	9	46	59411	9124	0.54916148504707962275	0	1	1371.4660149998962879	0	NaN	NaN	0	1	1	0	1	0
1	1	9	47	17320	3293	0.54920778819359838963	1	1	724.4637550029437989	0	158	187	1	1	0	1	2	0
1	1	9	48	13179	2821	0.54925408365670591593	0	1	828.87945000402396545	0	NaN	NaN	0	1	1	0	1	0
1	1	9	49	68538	4095	0.54930037679150700569	0	1	1429.5642459983355366	0	NaN	NaN	0	1	1	0	1	0
1	1	9	50	48282	4751	0.54934657400008291006	1	1	1026.1398340007872321	0	328	NaN	1	1	0	1	2	0
1	1	9	51	33139	2755	0.54939286003354936838	1	1	850.82388000591890886	0	67	NaN	1	1	0	1	2	0
1	1	9	52	5028	7655	0.54943915863987058401	0	1	1250.8603669994045049	0	NaN	NaN	0	1	1	0	1	0
1	1	9	53	60178	3807	0.54948545631486922503	0	1	2684.9876670021330938	0	NaN	NaN	0	1	1	0	1	0
1	1	9	54	15523	3457	0.5495317473541945219	1	1	838.63157399900956079	0	267	353	1	1	0	1	2	0
1	1	9	55	58423	8109	0.54962433839682489634	1	1	1155.167881996021606	0	115	NaN	1	1	0	1	2	0
1	1	9	56	38637	6054	0.54967062873765826225	0	1	1758.8094509992515668	0	NaN	NaN	0	1	1	0	1	0
1	1	9	57	44418	9508	0.54971692478284239769	0	1	930.00754300010157749	0	NaN	NaN	0	1	1	0	1	0
1	1	9	58	42339	3768	0.54976322129368782043	0	1	1039.3289720013854094	0	NaN	NaN	0	1	1	0	1	0
1	1	9	59	25008	6410	0.54980951838660985231	0	1	912.75452999980188906	0	NaN	NaN	0	1	1	0	1	0
1	1	9	60	25789	2328	0.54985580313950777054	0	1	669.06023800402181223	0	NaN	NaN	0	1	1	0	1	0
1	1	9	61	60178	3807	0.54990210139658302069	1	1	805.82501099706860259	0	7	NaN	1	1	0	1	2	0
1	1	9	62	37776	7697	0.54994839348364621401	0	1	1648.884838999947533	0	NaN	NaN	0	1	1	0	1	0
1	1	9	63	9096	8816	0.54999468813184648752	0	1	2210.9856450042570941	0	NaN	NaN	0	1	1	0	1	0
1	1	10	1	45722	3444	0.55177526501938700676	1	1	1583.9714519970584661	0	314	482	1	1	0	1	2	0
1	1	10	2	39287	7744	0.55182158073876053095	0	1	843.08786600013263524	0	NaN	NaN	0	1	1	0	1	0
1	1	10	3	66692	6106	0.55186785233672708273	1	1	734.95115299738245085	0	107	295	1	1	0	1	2	0
1	1	10	4	5067	1126	0.551914178766310215	0	0	1561.4009550045011565	0	NaN	NaN	0	0	0	1	2	0
1	1	10	5	48305	7339	0.55196044186595827341	0	1	1664.2636730030062608	0	NaN	NaN	0	1	1	0	1	0
1	1	10	6	9151	2913	0.55200677469838410616	0	1	1243.2487340047373436	0	NaN	NaN	0	1	1	0	1	0
1	1	10	7	56831	7572	0.5520530288340523839	0	1	958.47285600029863417	0	NaN	NaN	0	1	1	0	1	0
1	1	10	8	55444	8516	0.55209937377367168665	1	1	1274.8487650023889728	0	202	NaN	1	1	0	1	2	0
1	1	10	9	58481	6139	0.55214562185574322939	0	1	901.64175400423118845	0	NaN	NaN	0	1	1	0	1	0
1	1	10	10	65341	9261	0.55223820928949862719	0	1	1324.0762319983332418	0	NaN	NaN	0	1	1	0	1	0
1	1	10	11	42440	8315	0.55228456796612590551	1	1	713.63594900321913883	0	167	175	1	1	0	1	2	0
1	1	10	12	3627	14	0.55233079567551612854	0	1	1144.8938190005719662	0	NaN	NaN	0	1	1	0	1	0
1	1	10	13	28128	5660	0.55237716343253850937	1	1	695.9159640027792193	0	178	NaN	1	1	0	1	2	0
1	1	10	14	5119	6692	0.55242338310927152634	1	1	719.43098300107521936	0	143	398	1	1	0	1	2	0
1	1	10	15	29816	4211	0.55246974457986652851	0	1	740.95289700198918581	0	NaN	NaN	0	1	1	0	1	0
1	1	10	16	39462	9571	0.55251596763264387846	0	1	1355.6161989981774241	0	NaN	NaN	0	1	1	0	1	0
1	1	10	17	59735	9570	0.55256234109401702881	0	1	905.50082000117981806	0	NaN	NaN	0	1	1	0	1	0
1	1	10	18	55940	4400	0.55260855401866137981	0	1	1384.7024520000559278	0	NaN	NaN	0	1	1	0	1	0
1	1	10	19	39291	8200	0.55265493749175220728	0	1	1146.156499999051448	0	NaN	NaN	0	1	1	0	1	0
1	1	10	20	22960	5345	0.55270114680752158165	0	0	2669.0186839987291023	0	NaN	NaN	0	0	0	1	2	0
1	1	10	21	17166	4585	0.55279373005032539368	0	1	981.49811100302031264	0	NaN	NaN	0	1	1	0	1	0
1	1	10	22	8390	5081	0.55284013052005320787	1	1	734.34912500670179725	0	67	324	1	1	0	1	2	0
1	1	10	23	18888	7247	0.55288632446900010109	0	1	760.55979500233661383	0	NaN	NaN	0	1	1	0	1	0
1	1	10	24	44799	5960	0.55293273215647786856	0	1	1467.5334909989032894	0	NaN	NaN	0	1	2	0	1	0
1	1	10	25	68509	6843	0.55297891376540064812	1	1	1391.2394060025690123	0	244	485	1	1	0	1	2	0
1	1	10	26	25856	2726	0.55302510771434754133	0	1	1333.1512349977856502	0	NaN	NaN	0	1	1	0	1	0
1	1	10	27	5102	4285	0.55307140364311635494	1	1	953.83492799737723544	0	141	403	1	1	0	1	2	0
1	1	10	28	24922	7449	0.55311768990941345692	0	1	1365.4427810033666901	0	NaN	NaN	0	1	1	0	1	0
1	1	10	29	6038	3909	0.55316399422008544207	0	1	1734.8802139968029223	0	NaN	NaN	0	1	1	0	1	0
1	1	10	30	43563	6194	0.55325658002402633429	0	1	1089.7334900000714697	0	NaN	NaN	0	1	1	0	1	0
1	1	10	31	26186	3376	0.55330287443939596415	1	0	1412.3883069987641647	0	484	NaN	1	0	1	0	1	0
1	1	10	32	56549	3500	0.55334916571155190468	0	1	2441.5974599978653714	0	NaN	NaN	0	1	1	0	1	0
1	1	10	33	64285	6752	0.55339546129107475281	0	1	1765.4069680065731518	0	NaN	NaN	0	1	1	0	1	0
1	1	10	34	30618	4739	0.55344175617210566998	0	1	2014.0975719987181947	0	NaN	NaN	0	1	1	0	1	0
1	1	10	35	66766	3456	0.55348805210087448359	0	1	1863.307645995519124	0	NaN	NaN	0	1	1	0	1	0
1	1	10	36	19182	230	0.55353434581775218248	1	1	727.4243360006948933	0	89	164	1	1	0	1	2	0
1	1	10	37	45596	616	0.55358063732273876667	1	1	934.99657999927876517	0	253	NaN	1	1	0	1	2	0
1	1	10	38	14529	173	0.55362693336792290211	0	0	1853.4984290017746389	0	NaN	NaN	0	0	0	1	2	0
1	1	10	39	56522	2163	0.55367321870289742947	0	1	1174.7212560003390536	0	NaN	NaN	0	1	1	0	1	0
1	1	10	40	34723	9008	0.55376580625306814909	0	1	1402.9846220000763424	0	NaN	NaN	0	1	1	0	1	0
1	1	10	41	17041	4465	0.55381211079657077789	0	0	1174.2015980053110979	0	NaN	NaN	0	0	0	1	2	0
1	1	10	42	28473	7198	0.55385839845985174179	0	1	1803.7854180001886562	0	NaN	NaN	0	1	1	0	1	0
1	1	10	43	34083	5817	0.55390469357371330261	0	1	2451.8593840039102361	0	NaN	NaN	0	1	1	0	1	0
1	1	10	44	8117	6148	0.55395099276211112738	0	1	1112.9278630032786168	0	NaN	NaN	0	1	1	0	1	0
1	1	10	45	41065	4356	0.5539972865954041481	0	1	1171.9203780012321658	0	NaN	NaN	0	1	1	0	1	0
1	1	10	46	69028	4186	0.55404357565566897392	1	1	1071.1134669982129708	0	494	NaN	1	1	0	1	2	0
1	1	10	47	11019	1703	0.55408987612463533878	1	0	1115.7453119958518073	0	570	NaN	1	0	1	0	1	0
1	1	10	48	45414	9294	0.55413616914302110672	0	0	2232.2658479970414191	0	NaN	NaN	0	0	0	1	2	0
1	1	10	49	68747	6311	0.55418245540931820869	1	1	833.52424999611685053	0	133	256	1	1	0	1	2	0
1	1	10	50	30606	9492	0.55422875809017568827	0	1	1403.8521109978319146	0	NaN	NaN	0	1	1	0	1	0
1	1	10	51	28150	8688	0.55427504377439618111	0	0	2061.0770179991959594	0	NaN	NaN	0	0	0	1	2	0
1	1	10	52	65519	3319	0.55436753854155540466	0	1	1311.0745730009512044	0	NaN	NaN	0	1	1	0	1	0
1	1	10	53	60455	1769	0.55441383738070726395	0	1	1331.5060989989433438	0	NaN	NaN	0	1	1	0	1	0
1	1	10	54	9883	8140	0.55446013074833899736	0	1	1239.8730519998935051	0	NaN	NaN	0	1	1	0	1	0
1	1	10	55	2840	7561	0.55450641992501914501	0	1	1806.3373260010848753	0	NaN	NaN	0	1	1	0	1	0
1	1	10	56	39064	2304	0.55455271934624761343	0	1	2234.0986740018706769	0	NaN	NaN	0	1	1	0	1	0
1	1	10	57	45843	2481	0.55459901574067771435	0	1	2039.9357119968044572	0	NaN	NaN	0	1	1	0	1	0
1	1	10	58	2115	2880	0.55464531155303120613	1	1	961.45253699796739966	0	402	NaN	1	1	0	1	2	0
1	1	10	59	46134	2186	0.55469159421045333147	1	1	850.14503300044452772	0	162	NaN	1	1	0	1	2	0
1	1	10	60	33025	2935	0.55473789595998823643	0	1	826.54797699797200039	0	NaN	NaN	0	1	1	0	1	0
1	1	10	61	5538	5193	0.55478418304119259119	0	0	1754.2769409992615692	0	NaN	NaN	0	0	0	1	2	0
1	1	10	62	9918	116	0.55483047699090093374	1	1	641.68274999974528328	0	267	NaN	1	1	0	1	2	0
1	1	11	1	71277	9647	0.55645037943031638861	0	0	1590.7790000055683777	0	NaN	NaN	0	0	0	1	2	0
1	1	11	2	7982	1791	0.55649668164551258087	0	1	1149.6842989945434965	0	NaN	NaN	0	1	1	0	1	0
1	1	11	3	7143	1407	0.55654297396540641785	0	1	1507.1651489997748286	0	NaN	NaN	0	1	1	0	1	0
1	1	11	4	56043	770	0.55658927862532436848	0	0	1720.0345890014432371	0	NaN	NaN	0	0	0	1	2	0
1	1	11	5	57999	2830	0.55663556093350052834	0	1	1039.8358810052741319	0	NaN	NaN	0	1	1	0	1	0
1	1	11	6	66316	2129	0.5566818618681281805	0	1	1330.2346619966556318	0	NaN	NaN	0	1	1	0	1	0
1	1	11	7	69582	2579	0.55672814941499382257	0	1	2025.4095220007002354	0	NaN	NaN	0	1	1	0	1	0
1	1	11	8	65973	3014	0.5567744432482868433	1	1	1078.3190620059031062	0	444	540	1	1	0	1	2	0
1	1	11	9	34239	459	0.55682072904892265797	0	0	1224.6305190055863932	0	NaN	NaN	0	0	0	1	2	0
1	1	11	10	267	2642	0.55686703952960669994	0	1	1145.6568759967922233	0	NaN	NaN	0	1	1	0	1	0
1	1	11	11	6116	8996	0.55691332428250461817	0	1	1960.3656100007356144	0	NaN	NaN	0	1	1	0	1	0
1	1	11	12	13224	5745	0.55695962684694677591	1	1	868.0335420067422092	0	114	NaN	1	1	0	1	2	0
1	1	11	13	52638	3410	0.55705220648087561131	0	0	1236.001272001885809	0	NaN	NaN	0	0	0	1	2	0
1	1	11	14	15665	8116	0.55709850613493472338	0	1	1859.5713039976544678	0	NaN	NaN	0	1	1	0	1	0
1	1	11	15	40069	5733	0.55714478879235684872	1	1	688.31561600381974131	0	114	NaN	1	1	0	1	2	0
1	1	11	16	49725	3951	0.55719109030906111002	1	1	877.91606000246247277	0	100	392	1	1	0	1	2	0
1	1	11	17	54233	1482	0.55723738297820091248	0	0	1937.6443380024284124	0	NaN	NaN	0	0	0	1	2	0
1	1	11	18	21538	4599	0.55728367518167942762	0	1	876.0656929953256622	0	NaN	NaN	0	1	1	0	1	0
1	1	11	19	60420	4040	0.55732997192535549402	0	0	2328.8758730050176382	0	NaN	NaN	0	0	0	1	2	0
1	1	11	20	68511	4982	0.55737626645714044571	0	1	1353.6679739991086535	0	NaN	NaN	0	1	1	0	1	0
1	1	11	21	68136	8474	0.55742256005760282278	0	1	1265.1905370003078133	0	NaN	NaN	0	1	1	0	1	0
1	1	11	22	11034	9657	0.55746885563712567091	1	0	1446.3379489970975555	0	321	NaN	1	0	1	0	1	0
1	1	11	23	47273	6168	0.55756143794860690832	0	1	1081.4206249997369014	0	NaN	NaN	0	1	1	0	1	0
1	1	11	24	1175	6537	0.55760773713700473309	0	1	1135.5791890018736012	0	NaN	NaN	0	1	1	0	1	0
1	1	11	25	64021	4759	0.55765402247197926044	0	0	1554.1741470005945303	0	NaN	NaN	0	0	0	1	2	0
1	1	11	26	41854	5514	0.55770032166037708521	1	1	746.53422499977750704	0	171	NaN	1	1	0	1	2	0
1	1	11	27	22565	4620	0.55774661933537572622	0	1	1345.261659000243526	0	NaN	NaN	0	1	1	0	1	0
1	1	11	28	58199	7333	0.55779291270300745964	0	0	1234.7765300000901334	0	NaN	NaN	0	0	0	1	2	0
1	1	11	29	64332	1069	0.55783920781686902046	0	1	727.43739699944853783	0	NaN	NaN	0	1	1	0	1	0
1	1	11	30	46523	1218	0.5578855038620531559	0	1	701.9604320012149401	0	NaN	NaN	0	1	1	0	1	0
1	1	11	31	17796	1512	0.55793179618194699287	0	1	991.89063299854751676	0	NaN	NaN	0	1	1	0	1	0
1	1	11	32	21538	4599	0.55797808594070374966	1	1	858.4888949990272522	0	13	NaN	1	1	0	1	2	0
1	1	11	33	56054	1040	0.55802438815589994192	0	1	1268.290387000888586	0	NaN	NaN	0	1	1	0	1	0
1	1	11	34	28711	1624	0.55807067826390266418	1	1	2214.0505520001170225	0	139	NaN	1	1	0	1	2	0
1	1	11	35	37833	1808	0.55816316942218691111	1	1	975.73126199858961627	0	333	NaN	1	1	0	1	2	0
1	1	11	36	7941	4690	0.55820946407038718462	0	1	856.33120300190057606	0	NaN	NaN	0	1	1	0	1	0
1	1	11	37	50114	5019	0.55825575126800686121	0	1	1084.7389609989477322	0	NaN	NaN	0	1	1	0	1	0
1	1	11	38	67384	5219	0.55830205266829580069	0	0	1526.2422320010955445	0	NaN	NaN	0	0	0	1	2	0
1	1	11	39	8558	9102	0.55834834114648401737	0	1	772.71024700166890398	0	NaN	NaN	0	1	1	0	1	0
1	1	11	40	47126	9621	0.55839464371092617512	1	1	1578.8853900012327358	0	547	NaN	1	1	0	1	2	0
1	1	11	41	18574	5874	0.55844093009363859892	0	1	889.34040300227934495	0	NaN	NaN	0	1	1	0	1	0
1	1	11	42	14122	169	0.55848722846712917089	0	1	1015.9502579990657978	0	NaN	NaN	0	1	1	0	1	0
1	1	11	43	7304	9088	0.55853351624682545662	1	1	751.26734799414407462	0	122	NaN	1	1	0	1	2	0
1	1	11	44	12196	4637	0.55862611508928239346	0	1	1864.4136810034979135	0	NaN	NaN	0	1	1	0	1	0
1	1	11	45	5595	4522	0.55867240647785365582	0	0	1201.6355950036086142	0	NaN	NaN	0	0	0	1	2	0
1	1	11	46	4082	7224	0.55871869961265474558	0	0	2114.2696009992505424	0	NaN	NaN	0	0	0	1	2	0
1	1	11	47	45558	3822	0.55876499426085501909	0	1	2719.272909002029337	0	NaN	NaN	0	1	1	0	1	0
1	1	11	48	69903	6407	0.55881128821056336164	0	1	1152.769575004640501	0	NaN	NaN	0	1	1	0	1	0
1	1	11	49	44949	8393	0.55885758227668702602	0	1	827.98631400510203093	0	NaN	NaN	0	1	1	0	1	0
1	1	11	50	15665	8116	0.55890387704130262136	1	1	943.29988700337707996	0	35	NaN	1	1	0	1	2	0
1	1	11	51	21982	2044	0.55895017075818032026	0	1	1580.9033769983216189	0	NaN	NaN	0	1	1	0	1	0
1	1	11	52	7635	3862	0.55899646528996527195	1	1	851.95329399721231312	0	247	NaN	1	1	0	1	2	0
1	1	11	53	489	8019	0.55904275598004460335	0	1	1510.9855600021546707	0	NaN	NaN	0	1	1	0	1	0
1	1	11	54	7143	1407	0.55913534760475158691	1	1	1002.381051002885215	0	50	NaN	1	1	0	1	2	0
1	1	11	55	7265	7367	0.55918164132162928581	1	1	2974.186211999040097	1	589	NaN	1	1	1	1	2	0
1	1	11	56	22402	8706	0.55922793352510780096	0	1	1134.4418189983116463	0	NaN	NaN	0	1	1	0	1	0
1	1	11	57	40945	2753	0.55927422072272747755	0	1	1462.0826150057837367	0	NaN	NaN	0	1	1	0	1	0
1	1	11	58	5219	3802	0.55932052433490753174	0	1	1045.346155995503068	0	NaN	NaN	0	1	1	0	1	0
1	1	11	59	11034	9657	0.55936672177631407976	1	1	802.23024400038411841	0	36	358	1	1	0	1	2	0
1	1	11	60	6117	5714	0.5594130135141313076	1	1	670.44066899688914418	0	191	390	1	1	0	1	2	0
1	1	11	61	26352	347	0.55945930955931544304	0	1	1303.4780529997078702	0	NaN	NaN	0	1	1	0	1	0
1	1	11	62	5595	4522	0.55950559535995125771	1	1	648.87080699554644525	0	16	NaN	1	1	0	1	2	0
1	1	11	63	37637	5102	0.5595518981572240591	0	1	1387.6063849966158159	0	NaN	NaN	0	1	1	0	1	0
1	1	12	1	42992	1122	0.56109647289849817753	0	1	1487.9228159988997504	0	NaN	NaN	0	1	1	0	1	0
1	1	12	2	4787	36	0.56114275672007352114	1	1	1490.2027890057070181	0	286	NaN	1	1	0	1	2	0
1	1	12	3	20596	5273	0.56118905707262456417	0	1	1251.9752499938476831	0	NaN	NaN	0	1	1	0	1	0
1	1	12	4	55713	9335	0.56123535253573209047	1	1	1257.1430539974244311	0	269	NaN	1	1	0	1	2	0
1	1	12	5	52638	3410	0.56128164997790008783	1	1	804.63074699946446344	0	54	NaN	1	1	0	1	2	0
1	1	12	6	57028	5670	0.56132794148288667202	0	1	1139.9941720010247082	0	NaN	NaN	0	1	1	0	1	0
1	1	12	7	67569	5449	0.56137423275504261255	0	1	1107.8289470024174079	0	NaN	NaN	0	1	1	0	1	0
1	1	12	8	23873	4580	0.56142052484210580587	0	1	1243.9207869974779896	0	NaN	NaN	0	1	1	0	1	0
1	1	12	9	40190	1994	0.56146682181861251593	0	1	1044.0536169990082271	0	NaN	NaN	0	1	1	0	1	0
1	1	12	10	10263	1386	0.56151311309076845646	0	1	1238.6409050013753586	0	NaN	NaN	0	1	1	0	1	0
1	1	12	11	24290	9828	0.56155941460747271776	0	1	782.25057500094408169	0	NaN	NaN	0	1	2	0	1	0
1	1	12	12	14759	9484	0.5616057093720883131	1	1	2302.3501600036979653	0	371	NaN	1	1	0	1	2	0
1	1	12	13	13739	1490	0.56165200285613536835	0	1	1048.8735410035587847	0	NaN	NaN	0	1	1	0	1	0
1	1	12	14	11160	131	0.56174458609893918037	0	1	1411.525989999063313	0	NaN	NaN	0	1	1	0	1	0
1	1	12	15	8891	5518	0.56179088482167571783	0	0	2368.3033250053995289	1	NaN	NaN	0	0	1	1	2	0
1	1	12	16	63170	1103	0.56183708214666694403	0	1	1253.3288370032096282	0	NaN	NaN	0	1	1	0	1	0
1	1	12	17	22058	5354	0.56188337597995996475	0	1	902.41487399907782674	0	NaN	NaN	0	1	1	0	1	0
1	1	12	18	46444	8405	0.56192966224625706673	0	1	1761.4460620025056414	0	NaN	NaN	0	1	1	0	1	0
1	1	12	19	8708	4272	0.5619759575929492712	0	1	903.7251379995723255	0	NaN	NaN	0	1	1	0	1	0
1	1	12	20	41366	9513	0.56202225340530276299	0	1	1316.7890829936368391	0	NaN	NaN	0	1	1	0	1	0
1	1	12	21	53511	7408	0.56206855038180947304	0	1	1526.3734339969232678	0	NaN	NaN	0	1	1	0	1	0
1	1	12	22	9151	2913	0.56211484852246940136	1	1	952.03156099887564778	0	140	NaN	1	1	0	1	2	0
1	1	12	23	54184	1834	0.56216114421840757132	0	1	1703.4076609998010099	0	NaN	NaN	0	1	1	0	1	0
1	1	12	24	60497	7141	0.56225373037159442902	0	1	1143.4383770028944127	0	NaN	NaN	0	1	1	0	1	0
1	1	12	25	52248	1784	0.56230002664960920811	0	1	1402.6607839987264015	0	NaN	NaN	0	1	1	0	1	0
1	1	12	26	33026	3880	0.56234632059931755066	0	1	1177.3099210040527396	0	NaN	NaN	0	1	1	0	1	0
1	1	12	27	7143	1407	0.56239260837901383638	1	1	736.80630600574659184	0	35	86	1	1	0	1	2	0
1	1	12	28	60171	5778	0.56243890640325844288	0	1	865.48930300341453403	0	NaN	NaN	0	1	1	0	1	0
1	1	12	29	2265	5306	0.56248520431108772755	0	1	854.53868199692806229	0	NaN	NaN	0	1	1	0	1	0
1	1	12	30	18742	6677	0.56253149057738482952	0	1	1203.8851420002174564	0	NaN	NaN	0	1	1	0	1	0
1	1	12	31	20551	6378	0.5625777889508754015	0	1	1092.8555260034045205	0	NaN	NaN	0	1	1	0	1	0
1	1	12	32	38937	2451	0.56262408394832164049	1	1	1088.9826810016529635	0	305	NaN	1	1	0	1	2	0
1	1	12	33	45558	3822	0.56267037731595337391	1	1	1140.2419690057286061	0	48	NaN	1	1	0	1	2	0
1	1	12	34	61032	5870	0.56276296393480151892	0	1	1956.4072220018715598	0	NaN	NaN	0	1	1	0	1	0
1	1	12	35	23121	2567	0.56280925893224775791	0	1	1922.8898309957003221	0	NaN	NaN	0	1	1	0	1	0
1	1	12	36	50434	1446	0.56285555299837142229	0	1	1311.701979000645224	0	NaN	NaN	0	1	1	0	1	0
1	1	12	37	14529	173	0.56290184811223298311	1	1	782.62093900411855429	0	123	NaN	1	1	0	3	2	0
1	1	12	38	50283	5360	0.56294813507702201605	0	1	839.79038200050126761	0	NaN	NaN	0	1	1	0	1	0
1	1	12	39	47273	6168	0.5629944363608956337	1	1	814.10026500088861212	0	78	NaN	1	1	0	1	2	0
1	1	12	40	21538	4599	0.56304072518832981586	1	1	789.96460099733667448	0	70	84	1	1	0	3	2	0
1	1	12	41	29945	4614	0.5630869291489943862	0	1	1307.092450006166473	0	NaN	NaN	0	1	1	0	1	0
1	1	12	42	66734	8417	0.56313322274945676327	0	1	1547.0239009955548681	0	NaN	NaN	0	1	1	0	1	0
1	1	12	43	22356	2034	0.56322580319829285145	0	1	904.46075500221922994	0	NaN	NaN	0	1	1	0	1	0
1	1	12	44	29838	398	0.56327210506424307823	0	1	1402.6095669978531078	0	NaN	NaN	0	1	1	0	1	0
1	1	12	45	72896	8629	0.56331839808262884617	0	1	1731.638086996099446	0	NaN	NaN	0	1	1	0	1	0
1	1	12	46	20185	1411	0.56336469191592186689	0	1	2001.4993259974289685	0	NaN	NaN	0	1	1	0	1	0
1	1	12	47	68491	2152	0.56341098668053746223	0	1	1083.6168349997024052	0	NaN	NaN	0	1	1	0	1	0
1	1	12	48	14939	6858	0.56345727294683456421	0	1	2311.9345729937776923	0	NaN	NaN	0	1	1	0	1	0
1	1	12	49	58274	9391	0.56350357539486140013	0	1	2373.691196997242514	0	NaN	NaN	0	1	1	0	1	0
1	1	12	50	22058	5354	0.56354986049700528383	1	1	885.01776000339305028	0	32	NaN	1	1	0	1	2	0
1	1	12	51	58145	805	0.56359616480767726898	1	1	1135.2515910039073788	0	240	NaN	1	1	0	1	2	0
1	1	12	52	5757	4665	0.5636887488653883338	0	1	1102.5032990000909194	0	NaN	NaN	0	1	1	0	1	0
1	1	12	53	2840	7561	0.56373503897339105606	1	1	1514.8637610036530532	0	122	NaN	1	1	0	1	2	0
1	1	12	54	10741	8160	0.56378134072292596102	0	1	1656.6063229984138161	0	NaN	NaN	0	1	1	0	1	0
1	1	12	55	27811	2161	0.56382763339206576347	0	1	1007.5207579939160496	0	NaN	NaN	0	1	1	0	1	0
1	1	12	56	64178	7903	0.56387392431497573853	0	1	2003.6241070047253743	0	NaN	NaN	0	1	1	0	1	0
1	1	12	57	41222	7560	0.56392021919600665569	0	1	1012.7200420029112138	0	NaN	NaN	0	1	1	0	1	0
1	1	12	58	32022	2370	0.56396651675458997488	0	0	1465.6395050042192452	0	NaN	NaN	0	0	0	1	2	0
1	1	12	59	54237	2563	0.56401280476711690426	0	1	965.91040299972519279	0	NaN	NaN	0	1	1	0	1	0
1	1	12	60	48682	670	0.5640591025585308671	0	1	1102.2252420007134788	0	NaN	NaN	0	1	1	0	1	0
1	1	12	61	72481	9409	0.56410539243370294571	0	1	2289.5336459987447597	0	NaN	NaN	0	1	1	0	1	0
1	1	12	62	3183	9681	0.56415169325191527605	0	1	931.91305599611951038	0	NaN	NaN	0	1	1	0	1	0
1	2	1	1	26332	8819	7.6842020759359002113	0	1	1162.1790789940860122	0	NaN	NaN	0	1	1	0	1	0
1	2	1	2	1466	2972	7.6842483757063746452	0	0	3136.2582680012565106	1	NaN	NaN	0	0	1	1	2	0
1	2	1	3	14595	175	7.6842946639517322183	0	1	1138.5473079863004386	0	NaN	NaN	0	1	1	0	1	0
1	2	1	4	62406	6169	7.6843409728026017547	1	0	1150.0985949824098498	0	219	NaN	0	1	1	0	1	0
1	2	1	5	59235	1591	7.684387246728874743	0	1	924.93316699983552098	0	NaN	NaN	0	1	1	0	1	0
1	2	1	6	34349	4692	7.6844335427740588784	0	1	1313.1792709755245596	0	NaN	NaN	0	1	1	0	1	0
1	2	1	7	50695	4152	7.6844798343954607844	0	1	1162.7698740048799664	0	NaN	NaN	0	1	1	0	1	0
1	2	1	8	23844	7167	7.6845261246198788285	0	1	981.01166999549604952	0	NaN	NaN	0	1	1	0	1	0
1	2	1	9	17041	4465	7.6845724271843209863	1	1	2313.0895359790883958	0	154	NaN	0	0	0	1	2	0
1	2	1	10	53487	5313	7.6846187211340293288	0	1	840.30407099635340273	0	NaN	NaN	0	1	1	0	1	0
1	2	1	11	24481	305	7.6846650168299674988	0	1	1232.7423529932275414	0	NaN	NaN	0	1	1	0	1	0
1	2	1	12	71316	9575	7.6847113020485267043	1	0	1505.1330490096006542	0	346	NaN	0	1	1	0	1	0
1	2	1	13	36975	487	7.6847576058935374022	0	1	1302.2016000177245587	0	NaN	NaN	0	1	1	0	1	0
1	2	1	14	68250	3997	7.6848039011238142848	0	1	1177.5504889956209809	0	NaN	NaN	0	1	1	0	1	0
1	2	1	15	52233	7390	7.6848964785458520055	1	0	1741.0817210038658231	0	233	NaN	0	1	1	0	1	0
1	2	1	16	35780	1277	7.6849427816923707724	0	1	1838.548141997307539	0	NaN	NaN	0	1	1	0	1	0
1	2	1	17	15065	2195	7.6849890678422525525	0	1	1683.7265380017925054	0	NaN	NaN	0	1	1	0	1	0
1	2	1	18	15228	5101	7.6850353699410334229	0	1	1156.9378229905851185	0	NaN	NaN	0	1	1	0	1	0
1	2	1	19	56273	1826	7.6850816638907417655	0	1	1181.6293720039539039	0	NaN	NaN	0	1	1	0	1	0
1	2	1	20	59235	1591	7.6851278601679950953	1	1	820.01121900975704193	0	14	NaN	1	1	0	1	2	0
1	2	1	21	36763	2080	7.6851741542341187596	0	1	792.57279500598087907	0	NaN	NaN	0	1	1	0	1	0
1	2	1	22	70628	3804	7.6852204413153231144	0	1	983.71126997517421842	0	NaN	NaN	0	1	1	0	1	0
1	2	1	23	24685	2773	7.6852667449275031686	0	0	2462.8684589988552034	1	NaN	NaN	0	0	1	1	2	0
1	2	1	24	22960	5345	7.6853593313135206699	1	0	1402.380736981285736	0	190	NaN	0	1	1	0	1	0
1	2	1	25	16549	7130	7.6854056204902008176	1	1	2528.6236059910152107	0	336	497	0	0	0	1	2	0
1	2	1	26	27814	3770	7.6854519149055704474	1	0	1404.7586210072040558	0	646	NaN	0	1	1	0	1	0
1	2	1	27	10263	1386	7.6854982160730287433	1	0	1739.2424429999664426	0	78	NaN	0	1	1	0	1	0
1	2	1	28	17842	9317	7.6855445005930960178	0	1	1781.507823005085811	0	NaN	NaN	0	1	1	0	1	0
1	2	1	29	67104	8105	7.6855907950084656477	0	1	1439.2809979908633977	0	NaN	NaN	0	1	1	0	1	0
1	2	1	30	1083	8280	7.6856370937312021852	1	0	1526.708577002864331	0	413	NaN	0	1	1	0	1	0
1	2	1	31	36911	485	7.6856833855854347348	0	1	1466.0578510083723813	0	NaN	NaN	0	1	1	0	1	0
1	2	1	32	16703	200	7.6857296782545745373	0	1	1403.0540850071702152	0	NaN	NaN	0	1	1	0	1	0
1	2	1	33	61717	9130	7.6857759802369400859	0	1	1923.4082389739342034	0	NaN	NaN	0	1	1	0	1	0
1	2	1	34	34107	2587	7.6858222680166363716	0	1	1503.7238019867800176	0	NaN	NaN	0	1	1	0	1	0
1	2	1	35	65410	2904	7.6858685596380382776	0	1	1568.1115380139090121	0	NaN	NaN	0	1	1	0	1	0
1	2	1	36	19898	4239	7.6859611497493460774	0	1	1241.5381030004937202	0	NaN	NaN	0	1	1	0	1	0
1	2	1	37	8974	8001	7.6860074445139616728	0	1	1703.8844669878017157	0	NaN	NaN	0	1	1	0	1	0
1	2	1	38	3221	3312	7.68605373939499259	0	1	1274.8298229998908937	0	NaN	NaN	0	1	1	0	1	0
1	2	1	39	69366	6903	7.6861000318313017488	0	1	1640.92007398721762	0	NaN	NaN	0	1	1	0	1	0
1	2	1	40	53487	5313	7.6861463311361148953	1	1	972.4375880032312125	0	29	NaN	1	1	0	1	2	0
1	2	1	41	26474	5567	7.6861926231067627668	0	1	950.07162299589253962	0	NaN	NaN	0	1	1	0	1	0
1	2	1	42	55094	9012	7.6862389222951605916	0	1	1189.0480770089197904	0	NaN	NaN	0	1	2	0	1	0
1	2	1	43	4477	5208	7.6862852083286270499	0	1	1248.4281170181930065	0	NaN	NaN	0	1	1	0	1	0
1	2	1	44	33454	3475	7.6863314146175980568	0	1	1324.9839250056538731	0	NaN	NaN	0	1	1	0	1	0
1	2	1	45	71874	2336	7.686377696692943573	1	1	1292.8424220008309931	0	366	433	0	0	0	1	2	0
1	2	1	46	34723	9008	7.6864702877355739474	1	1	1969.7329199989326298	1	192	NaN	0	0	1	1	2	0
1	2	1	47	63815	7974	7.6865165890194475651	1	1	1254.7228659968823195	0	333	539	0	0	0	1	2	0
1	2	1	48	11271	8441	7.6865628778468817472	1	1	3026.2415590113960207	1	582	NaN	0	0	1	1	2	0
1	2	1	49	5603	53	7.6866091731935739517	1	1	1804.0085399989038706	0	565	NaN	0	0	0	1	2	0
1	2	1	50	3627	14	7.6866554735461249948	1	1	1167.1573530184105039	0	224	NaN	0	0	0	1	2	0
1	2	1	51	16499	2255	7.6867017640033736825	1	1	1454.9830360047053546	0	256	NaN	0	0	0	1	2	0
1	2	1	52	59849	4096	7.6867480529472231865	0	1	967.07203800906427205	0	NaN	NaN	0	1	1	0	1	0
1	2	1	53	61749	848	7.6867943472461774945	0	1	2151.813203003257513	0	NaN	NaN	0	1	1	0	1	0
1	2	1	54	5464	4139	7.6868406385183334351	0	1	1657.1477520046755672	0	NaN	NaN	0	1	1	0	1	0
1	2	1	55	10118	9969	7.6869332353817299008	0	1	1681.3317869964521378	0	NaN	NaN	0	1	1	0	1	0
1	2	1	56	11341	5604	7.6869795293314382434	0	1	2421.3412810058798641	0	NaN	NaN	0	1	1	0	1	0
1	2	1	57	59269	5629	7.6870259003480896354	0	1	1230.8426860254257917	0	NaN	NaN	0	1	1	0	1	0
1	2	1	58	62934	5555	7.6870722003513947129	0	1	1419.2186069849412888	0	NaN	NaN	0	1	1	0	1	0
1	2	1	59	8007	86	7.6871185024501755834	0	1	2013.0007789994124323	0	NaN	NaN	0	1	1	0	1	0
1	2	1	60	53562	7292	7.6871648000087589025	0	1	2003.0501639994326979	0	NaN	NaN	0	1	1	0	1	0
1	2	1	61	29936	2391	7.6872110925614833832	0	1	1440.0453220005147159	0	NaN	NaN	0	1	2	0	1	0
1	2	1	62	17430	1282	7.6872573938453570008	0	1	1872.5776179926469922	0	NaN	NaN	0	1	2	0	1	0
1	2	1	63	68491	2152	7.687303694081492722	1	0	1676.2351069774013013	0	77	NaN	0	1	1	0	1	0
1	2	2	1	60840	7785	7.689023016719147563	0	1	857.49323302297852933	0	NaN	NaN	0	1	1	0	1	0
1	2	2	2	63249	4946	7.6890693577006459236	0	1	1350.8396859979256988	0	NaN	NaN	0	1	1	0	1	0
1	2	2	3	43170	6483	7.6891156005440279841	0	1	1629.1854410083033144	0	NaN	NaN	0	1	1	0	1	0
1	2	2	4	35470	1436	7.6891619431553408504	0	1	1229.9193119979463518	0	NaN	NaN	0	1	1	0	1	0
1	2	2	5	68014	6808	7.6892081936821341515	0	1	1360.1560239912942052	0	NaN	NaN	0	1	1	0	1	0
1	2	2	6	13613	6129	7.689254540135152638	0	1	1183.0204039870295674	0	NaN	NaN	0	1	1	0	1	0
1	2	2	7	41395	3625	7.6893007801845669746	0	1	1307.5292959983926266	0	NaN	NaN	0	1	1	0	1	0
1	2	2	8	54439	4127	7.6893471379298716784	0	1	1233.6292899854015559	0	NaN	NaN	0	1	1	0	1	0
1	2	2	9	4787	36	7.6893933659885078669	1	1	1235.7877710019238293	0	131	418	0	0	0	1	2	0
1	2	2	10	41395	3625	7.6894397332798689604	1	1	780.36186000099405646	0	2	NaN	1	1	0	1	2	0
1	2	2	11	55742	8509	7.6895323310745880008	0	1	1099.9493009876459837	0	NaN	NaN	0	1	1	0	1	0
1	2	2	12	38996	7629	7.689578539109788835	0	1	1103.4635439864359796	0	NaN	NaN	0	1	1	0	1	0
1	2	2	13	46523	1218	7.6896249284036457539	1	1	3351.4311769977211952	1	170	NaN	0	0	1	1	2	0
1	2	2	14	25008	6410	7.6896711294539272785	1	1	1975.0966499850619584	0	267	NaN	0	0	0	1	2	0
1	2	2	15	13139	159	7.6897175230551511049	0	1	837.90120200137607753	0	NaN	NaN	0	1	1	0	1	0
1	2	2	16	36911	485	7.6897637145593762398	1	1	811.96496498887427151	0	47	NaN	1	1	0	1	2	0
1	2	2	17	17948	3127	7.6898101218976080418	0	1	809.20473599690012634	0	NaN	NaN	0	1	1	0	1	0
1	2	2	18	58912	9744	7.6898563093272969127	0	1	1133.9199869835283607	0	NaN	NaN	0	1	1	0	1	0
1	2	2	19	65767	3412	7.6899027173640206456	0	1	973.30413101008161902	0	NaN	NaN	0	1	2	0	1	0
1	2	2	20	69753	9461	7.6899488926865160465	0	1	1678.0508670199196786	0	NaN	NaN	0	1	2	0	1	0
1	2	2	21	22565	4620	7.6900414867559447885	1	0	1465.7513890124391764	0	181	NaN	0	1	1	0	1	0
1	2	2	22	18048	4250	7.6900878978194668889	0	1	1228.7204609892796725	0	NaN	NaN	0	1	1	0	1	0
1	2	2	23	9096	8816	7.6901339716278016567	1	0	2002.3456669878214598	0	272	NaN	0	1	1	0	1	0
1	2	2	24	34107	2587	7.6901802625507116318	1	1	1485.8291299897246063	0	52	NaN	1	1	0	1	2	0
1	2	2	25	65349	7627	7.6902265670942142606	0	1	1107.3902000207453966	0	NaN	NaN	0	1	1	0	1	0
1	2	2	26	25455	327	7.6902728592976927757	0	1	1607.2251730074640363	0	NaN	NaN	0	1	1	0	1	0
1	2	2	27	15192	7054	7.6903191468445584178	0	1	1324.1391190094873309	0	NaN	NaN	0	1	1	0	1	0
1	2	2	28	28310	6637	7.6903654416091740131	0	1	1127.5173879985231906	0	NaN	NaN	0	1	1	0	1	0
1	2	2	29	14	4945	7.6904117390513420105	0	1	956.56842397875152528	0	NaN	NaN	0	1	1	0	1	0
1	2	2	30	51222	3524	7.6904580330010503531	0	1	890.39869001135230064	0	NaN	NaN	0	1	1	0	1	0
1	2	2	31	33775	8854	7.6905043323058634996	0	1	1961.8571649771183729	0	NaN	NaN	0	1	1	0	1	0
1	2	2	32	45558	3822	7.6905506252078339458	1	1	3745.4315850045531988	1	123	172	0	0	1	1	2	0
1	2	2	33	14529	173	7.6905969204381108284	1	1	909.42103398265317082	0	120	244	0	0	0	1	2	0
1	2	2	34	27142	3975	7.6906894998392090201	0	0	2628.6574649857357144	0	NaN	NaN	0	0	0	1	2	0
1	2	2	35	31656	8077	7.6907358055468648672	0	1	1717.9701259883586317	0	NaN	NaN	0	1	1	0	1	0
1	2	2	36	44041	3935	7.6907820967026054859	0	1	1324.5259019895456731	0	NaN	NaN	0	1	1	0	1	0
1	2	2	37	4477	5208	7.6908283908851444721	1	1	1128.490597999189049	0	56	NaN	1	1	0	1	2	0
1	2	2	38	24873	3179	7.6908746773842722178	0	1	1174.4245320151094347	0	NaN	NaN	0	1	1	0	1	0
1	2	2	39	52392	1189	7.6909209798322990537	0	0	2927.5639629922807217	0	NaN	NaN	0	0	0	1	2	0
1	2	2	40	70188	8403	7.6909672706387937069	0	1	1548.0511450150515884	0	NaN	NaN	0	1	1	0	1	0
1	2	2	41	71752	1776	7.6910135649377480149	0	1	1061.8331910227425396	0	NaN	NaN	0	1	1	0	1	0
1	2	2	42	58362	4187	7.6910598539980128407	0	1	883.69988900376483798	0	NaN	NaN	0	1	1	0	1	0
1	2	2	43	17054	3769	7.6911061513237655163	0	1	1311.2421249970793724	0	NaN	NaN	0	1	1	0	1	0
1	2	2	44	25081	4812	7.6911987429484724998	0	1	1074.2751060170121491	0	NaN	NaN	0	1	1	0	1	0
1	2	2	45	66708	6635	7.691245037829503417	0	0	1652.4642790027428418	0	NaN	NaN	0	0	0	1	2	0
1	2	2	46	13739	1490	7.6912913277046754956	1	0	720.35029000835493207	0	157	NaN	0	1	1	0	1	0
1	2	2	47	39462	9571	7.6913376208394765854	1	1	2236.9202160043641925	0	280	NaN	0	0	0	1	2	0
1	2	2	48	10263	1386	7.6913839206099510193	1	1	1016.7741789773572236	0	83	162	1	1	0	1	2	0
1	2	2	49	15159	5896	7.691430118284188211	1	1	1522.8784749924670905	0	331	NaN	0	0	0	1	2	0
1	2	2	50	17816	3371	7.6914764113025739789	0	1	888.75310597359202802	0	NaN	NaN	0	1	1	0	1	0
1	2	2	51	17826	8303	7.6915227050194516778	0	1	903.45084600267000496	0	NaN	NaN	0	1	1	0	1	0
1	2	2	52	70515	8258	7.6915689961751922965	0	1	1159.1297599952667952	0	NaN	NaN	0	1	1	0	1	0
1	2	2	53	34196	2854	7.6916152875637635589	0	1	1637.3733189830090851	0	NaN	NaN	0	1	1	0	1	0
1	2	2	54	13224	5745	7.6917078851256519556	1	1	1030.1904099760577083	0	229	344	0	0	0	1	2	0
1	2	2	55	14430	8175	7.6917541780276224017	1	0	3137.7787939854897559	1	449	NaN	0	1	1	1	1	0
1	2	2	56	52448	6851	7.6918004627805203199	0	1	1493.2040949934162199	0	NaN	NaN	0	1	1	0	1	0
1	2	2	57	9231	108	7.6918467653449624777	0	1	931.866309983888641	0	NaN	NaN	0	1	1	0	1	0
1	2	2	58	14595	175	7.6918930589454248548	1	1	902.85586199024692178	0	117	NaN	1	1	0	1	2	0
1	2	2	59	52448	6851	7.6919393526623025537	1	1	763.60483499593101442	0	2	NaN	1	1	0	1	2	0
1	2	2	60	17826	8303	7.6919856414897367358	1	1	730.23178300354629755	0	8	NaN	1	1	0	1	2	0
1	2	2	61	40235	3663	7.6920319361379370093	0	1	851.8585299898404628	0	NaN	NaN	0	1	1	0	1	0
1	2	2	62	56273	1826	7.6920782336965203285	1	1	819.57098600105382502	0	105	NaN	1	1	0	1	2	0
1	2	3	1	61749	848	7.6937395908171311021	1	1	863.00480199861340225	0	72	NaN	1	1	0	1	2	0
1	2	3	2	51244	1143	7.6937859171302989125	0	1	1537.3846659786067903	0	NaN	NaN	0	1	1	0	1	0
1	2	3	3	50659	2020	7.6938321817433461547	0	1	1227.7881510090082884	0	NaN	NaN	0	1	1	0	1	0
1	2	3	4	47584	3783	7.6938784746453166008	0	1	1602.4304289894644171	0	NaN	NaN	0	1	1	0	1	0
1	2	3	5	25081	4812	7.6939247697591781616	1	1	1464.3878090137150139	0	22	NaN	1	1	0	1	2	0
1	2	3	6	9049	106	7.6939710719743743539	0	1	1374.6039039979223162	0	NaN	NaN	0	1	1	0	1	0
1	2	3	7	45989	4361	7.6940173651091754436	0	1	880.8962689945474267	0	NaN	NaN	0	1	1	0	1	0
1	2	3	8	1786	1626	7.6940636516083031893	0	0	2183.9629449823405594	0	NaN	NaN	0	0	0	1	2	0
1	2	3	9	33209	3996	7.6941099475370720029	1	1	1722.2337479761335999	0	568	NaN	0	0	0	1	2	0
1	2	3	10	1852	4292	7.6941562914289534092	0	1	1380.7860439992509782	0	NaN	NaN	0	1	1	0	1	0
1	2	3	11	22402	8706	7.6942488888744264841	1	1	2254.8436150245834142	0	204	NaN	0	0	0	1	2	0
1	2	3	12	59784	1420	7.6942951270611956716	0	1	1402.2089759819209576	0	NaN	NaN	0	1	1	0	1	0
1	2	3	13	22063	9893	7.6943414823617786169	0	1	2162.0149220107123256	0	NaN	NaN	0	1	1	0	1	0
1	2	3	14	3711	7841	7.6943877129815518856	0	1	1382.7453479752875865	0	NaN	NaN	0	1	1	0	1	0
1	2	3	15	61790	1803	7.6944340808549895883	0	1	1674.8247659998014569	0	NaN	NaN	0	1	1	0	1	0
1	2	3	16	56054	1040	7.6944803056539967656	1	1	1184.3079860263969749	0	232	NaN	0	0	0	1	2	0
1	2	3	17	58521	3284	7.6945266780676320195	1	0	1794.9007219867780805	0	761	NaN	0	1	1	0	1	0
1	2	3	18	65533	1498	7.6945728946011513472	0	1	2103.8054520031437278	0	NaN	NaN	0	1	1	0	1	0
1	2	3	19	37890	2485	7.6946192746981978416	0	1	2312.334244983503595	0	NaN	NaN	0	1	1	0	1	0
1	2	3	20	34723	9008	7.6947118703974410892	1	1	801.22421201667748392	0	98	291	1	1	0	1	2	0
1	2	3	21	14759	9484	7.6947580743581056595	1	1	2615.5144730000756681	0	195	567	0	0	0	1	2	0
1	2	3	22	40190	1994	7.694804466562345624	1	1	2621.3111960096284747	0	199	NaN	0	0	0	1	2	0
1	2	3	23	46000	625	7.6948506576009094715	0	1	976.36114299530163407	0	NaN	NaN	0	1	1	0	1	0
1	2	3	24	26332	8819	7.694897062610834837	1	1	961.95661899400874972	0	147	NaN	1	1	0	2	2	0
1	2	3	25	1234	7020	7.6949432487599551678	1	1	1571.6658619930967689	0	426	NaN	0	0	0	1	2	0
1	2	3	26	42852	570	7.694989657960832119	0	1	915.37219600286334753	0	NaN	NaN	0	1	1	0	1	0
1	2	3	27	5306	7066	7.6950358349131420255	0	1	1311.080896994099021	0	NaN	NaN	0	1	1	0	1	0
1	2	3	28	52286	7410	7.695082255988381803	0	1	1575.7188160205259919	0	NaN	NaN	0	1	1	0	1	0
1	2	3	29	48174	7306	7.6951283221133053303	0	1	2246.7025780060794204	0	NaN	NaN	0	1	1	0	1	0
1	2	3	30	60840	7785	7.6952209101291373372	1	1	1003.5231560177635401	0	90	NaN	1	1	0	1	2	0
1	2	3	31	50695	4152	7.6952672272454947233	1	0	2256.3609369972255081	0	148	NaN	1	0	1	0	1	0
1	2	3	32	25545	1645	7.6953135040821507573	1	1	2603.160539991222322	0	682	NaN	0	0	0	1	2	0
1	2	3	33	22516	276	7.6953597894171252847	0	1	1334.1644350148271769	0	NaN	NaN	0	1	1	0	1	0
1	2	3	34	6627	1475	7.6954060838324949145	0	1	1120.833683991804719	0	NaN	NaN	0	1	1	0	1	0
1	2	3	35	23402	1102	7.6954523860476911068	0	1	2064.8009699943941087	0	NaN	NaN	0	1	1	0	1	0
1	2	3	36	25081	4812	7.6954986761556938291	1	1	708.01684600883163512	0	30	53	1	1	0	1	2	0
1	2	3	37	50695	4152	7.6955449656816199422	1	1	1116.4341479889117181	0	5	154	1	1	0	1	2	0
1	2	3	38	36911	485	7.6955912683624774218	1	1	670.51340997568331659	0	83	131	1	1	0	1	2	0
1	2	3	39	40841	534	7.6956375617301091552	0	1	2056.929164013126865	0	NaN	NaN	0	1	1	0	1	0
1	2	3	40	2840	7561	7.6956838562618941069	1	1	2457.97349902568385	1	173	296	0	0	1	1	2	0
1	2	3	41	15739	7116	7.6957301512593403459	0	1	1172.6463770028203726	0	NaN	NaN	0	1	1	0	1	0
1	2	3	42	57343	4035	7.6958227428840473294	0	1	2131.3339280022773892	0	NaN	NaN	0	1	1	0	1	0
1	2	3	43	5793	6077	7.6958690286846831441	0	1	1232.4234959960449487	0	NaN	NaN	0	1	1	0	1	0
1	2	3	44	31977	4593	7.6959153237985447049	0	1	1413.3133439754601568	0	NaN	NaN	0	1	1	0	1	0
1	2	3	45	26891	4442	7.6959616222884505987	0	1	1037.0292949955910444	0	NaN	NaN	0	1	1	0	1	0
1	2	3	46	61717	9130	7.6960079137934371829	1	1	909.57729500951245427	0	137	NaN	1	1	0	1	2	0
1	2	3	47	61749	848	7.6960542052984237671	1	1	620.23989198496565223	0	45	118	1	1	0	1	2	0
1	2	3	48	5792	5221	7.6961005035554990172	0	1	1702.229279006132856	0	NaN	NaN	0	1	1	0	1	0
1	2	3	49	53487	5313	7.6961467975052073598	1	1	709.45950198802165687	0	133	163	1	1	0	1	2	0
1	2	3	50	44264	4893	7.6961930854013189673	0	1	1987.5405239872634411	0	NaN	NaN	0	1	1	0	1	0
1	2	3	51	9028	105	7.6962393862195312977	0	1	1586.2494039756711572	0	NaN	NaN	0	1	1	0	1	0
1	2	3	52	3696	1937	7.6962856831960380077	0	1	1644.8727029783185571	0	NaN	NaN	0	1	1	0	1	0
1	2	3	53	25407	4900	7.6963319747010245919	1	0	1389.8965319967828691	0	802	NaN	0	1	2	0	1	0
1	2	3	54	52448	6851	7.6964244612026959658	1	1	729.30470501887612045	0	56	59	1	1	0	1	2	0
1	2	3	55	36322	6265	7.69647075270768255	0	1	1975.4167439823504537	0	NaN	NaN	0	1	1	0	1	0
1	2	3	56	64332	1069	7.6965170478215441108	1	1	1059.2241990088950843	0	276	NaN	0	0	0	1	2	0
1	2	3	57	15065	2195	7.6965633452637121081	1	1	742.06558801233768463	0	164	NaN	1	1	0	1	2	0
1	2	3	58	57734	2484	7.6966096367686986923	0	1	2127.821233996655792	0	NaN	NaN	0	1	1	0	1	0
1	2	3	59	45291	3699	7.6966559361899271607	0	1	1819.1692889959085733	0	NaN	NaN	0	1	1	0	1	0
1	2	3	60	13874	3940	7.6967022343305870891	0	1	1923.2389309909194708	0	NaN	NaN	0	1	1	0	1	0
1	2	3	61	15192	7054	7.6967485260684043169	1	1	869.98913899878971279	0	95	NaN	1	1	0	1	2	0
1	2	3	62	60825	2492	7.6967948157107457519	0	1	1511.5565659943968058	0	NaN	NaN	0	1	1	0	1	0
1	2	3	63	38996	7629	7.6968411143170669675	1	1	904.06961398548446596	0	112	NaN	1	1	0	1	2	0
1	2	4	1	20596	5273	14.685018827090971172	1	1	1477.3280150002392475	0	247	NaN	0	0	0	1	2	0
1	2	4	2	60515	4467	14.685065027908422053	0	1	1588.0027729999710573	0	NaN	NaN	0	1	1	0	1	0
1	2	4	3	11341	5604	14.685111313126981258	1	1	1617.9596669990132796	0	134	NaN	1	1	0	1	2	0
1	2	4	4	54439	4127	14.685157608124427497	1	0	2428.5229899996920722	0	120	NaN	1	0	1	0	1	0
1	2	4	5	50657	5242	14.685203913250006735	0	1	1389.4219389985664748	0	NaN	NaN	0	1	1	0	1	0
1	2	4	6	53892	742	14.685250205104239285	0	1	1558.0478920001041843	0	NaN	NaN	0	1	1	0	1	0
1	2	4	7	48104	5995	14.685296497889794409	0	0	2247.7074950002133846	0	NaN	NaN	0	0	0	1	2	0
1	2	4	8	22935	6183	14.685342789627611637	0	0	2410.7452940006623976	0	NaN	NaN	0	0	0	1	2	0
1	2	4	9	65097	3974	14.685389088816009462	0	1	914.49717100113048218	0	NaN	NaN	0	1	1	0	1	0
1	2	4	10	59673	3927	14.685481675900518894	0	1	1723.1622420003986917	0	NaN	NaN	0	1	1	0	1	0
1	2	4	11	27205	9913	14.6855279675219208	1	0	1421.5254700011428213	0	874	NaN	0	1	1	0	1	0
1	2	4	12	5306	7066	14.685574260423891246	1	1	1048.3265669990942115	0	47	NaN	1	1	0	1	2	0
1	2	4	13	61874	853	14.68562055507209152	0	0	1759.4105090010998538	0	NaN	NaN	0	0	0	1	2	0
1	2	4	14	4649	7979	14.685666850651614368	0	1	1472.1554210009344388	0	NaN	NaN	0	1	1	0	1	0
1	2	4	15	24039	2247	14.685713143437169492	0	0	2202.4747879986534826	0	NaN	NaN	0	0	0	1	2	0
1	2	4	16	31969	4061	14.685759434476494789	1	0	1508.9543520007282495	0	855	NaN	0	1	1	0	1	0
1	2	4	17	37776	7697	14.685805725050158799	1	0	1415.3253009990294231	0	392	NaN	0	1	1	0	1	0
1	2	4	18	28983	2287	14.685852019116282463	0	1	1755.468752000524546	0	NaN	NaN	0	1	1	0	1	0
1	2	4	19	14941	9977	14.685944616794586182	0	1	902.89341700008662883	0	NaN	NaN	0	1	1	0	1	0
1	2	4	20	36768	6728	14.685990909114480019	0	1	1302.2455570007878123	0	NaN	NaN	0	1	1	0	1	0
1	2	4	21	41533	5811	14.686037203529849648	0	1	1205.7384559993806761	0	NaN	NaN	0	1	1	0	1	0
1	2	4	22	50140	3586	14.686083494452759624	0	1	1558.4060729997872841	0	NaN	NaN	0	1	1	0	1	0
1	2	4	23	63527	2584	14.686129791080020368	0	1	1301.5215539999189787	0	NaN	NaN	0	1	1	0	1	0
1	2	4	24	69508	5905	14.686176085844635963	0	1	1321.3204040002892725	0	NaN	NaN	0	1	1	0	1	0
1	2	4	25	31233	6619	14.686222381656989455	0	1	1689.4916629989893408	0	NaN	NaN	0	1	2	0	1	0
1	2	4	26	20596	5273	14.686268664314411581	1	1	803.17889799880504142	0	24	272	1	1	0	1	2	0
1	2	4	27	25407	4900	14.686314867343753576	1	1	2235.2858480007853359	0	36	839	1	1	0	1	2	0
1	2	4	28	54233	1482	14.686361165251582861	1	0	2050.5513170010090107	0	323	NaN	0	1	1	0	1	0
1	2	4	29	17749	6719	14.686407458386383951	0	1	1319.8597110003902344	0	NaN	NaN	0	1	1	0	1	0
1	2	4	30	1234	7020	14.68645374511834234	1	1	1356.6141409992269473	0	67	494	1	1	0	1	2	0
1	2	4	31	37900	5563	14.686546332901343703	0	1	1103.3670239994535223	0	NaN	NaN	0	1	1	0	1	0
1	2	4	32	6608	7950	14.686592634650878608	0	1	1212.5766699991800124	0	NaN	NaN	0	1	1	0	1	0
1	2	4	33	25323	3249	14.686638933839276433	0	1	1343.9458459997695172	0	NaN	NaN	0	1	1	0	1	0
1	2	4	34	33450	8261	14.686685220687650144	0	1	1292.4502480000228388	0	NaN	NaN	0	1	1	0	1	0
1	2	4	35	19261	8768	14.686731516616418958	0	1	1353.1034040006488794	0	NaN	NaN	0	1	1	0	1	0
1	2	4	36	14941	9977	14.686777806957252324	1	1	807.72383799921954051	0	16	NaN	1	1	0	1	2	0
1	2	4	37	42927	9537	14.686824105214327574	0	1	1504.0613189994473942	0	NaN	NaN	0	1	1	0	1	0
1	2	4	38	34514	7895	14.686870399164035916	0	1	1602.2499709997646278	0	NaN	NaN	0	1	1	0	1	0
1	2	4	39	64330	2206	14.686916693113744259	0	1	977.01073099960922264	0	NaN	NaN	0	1	1	0	1	0
1	2	4	40	8583	9316	14.686962987645529211	0	1	1019.8539619996154215	0	NaN	NaN	0	1	1	0	1	0
1	2	4	41	20551	6378	14.687009281129576266	1	0	1883.8254669990419643	0	259	NaN	0	1	1	0	1	0
1	2	4	42	40767	4567	14.687055569258518517	0	1	1613.6199489992577583	0	NaN	NaN	0	1	1	0	1	0
1	2	4	43	6608	7950	14.687148166820406914	1	1	756.58750500042515341	0	10	NaN	1	1	0	1	2	0
1	2	4	44	20632	8037	14.687194451107643545	0	1	916.25706000013451558	0	NaN	NaN	0	1	1	0	1	0
1	2	4	45	29816	4211	14.687240745057351887	1	0	973.01392200097325258	0	404	NaN	0	1	1	0	1	0
1	2	4	46	2793	2604	14.687287047156132758	1	0	1391.8122459999722196	0	502	516	0	1	1	0	1	0
1	2	4	47	58899	3070	14.687333343084901571	0	1	1059.0693529993586708	0	NaN	NaN	0	1	1	0	1	0
1	2	4	48	24032	5826	14.687379633658565581	0	1	1261.106976000519353	0	NaN	NaN	0	1	1	0	1	0
1	2	4	49	52951	2750	14.687425928539596498	0	1	1232.0345709995308425	0	NaN	NaN	0	1	1	0	1	0
1	2	4	50	5595	4522	14.687472223537042737	1	0	1609.0802290000283392	0	300	317	0	1	1	0	1	0
1	2	4	51	65304	5972	14.687518510152585804	0	0	2385.495276001165621	0	NaN	NaN	0	0	0	1	2	0
1	2	4	52	70188	8403	14.687564706662669778	1	0	2935.2367390001745662	0	136	NaN	1	0	1	0	1	0
1	2	4	53	53892	742	14.687611000845208764	1	1	1002.8117990004830062	0	46	NaN	1	1	0	1	2	0
1	2	4	54	63195	3350	14.687657303409650922	0	1	1483.1927830000495305	0	NaN	NaN	0	1	1	0	1	0
1	2	4	55	62406	6169	14.687749883742071688	1	1	2771.2163219985086471	0	238	458	1	1	0	1	2	0
1	2	4	56	53859	740	14.687796175945550203	0	1	1368.0662450005911523	0	NaN	NaN	0	1	1	0	1	0
1	2	4	57	8708	4272	14.687842479906976223	1	1	3961.5800339997804258	1	287	NaN	0	0	1	1	2	0
1	2	4	58	57028	5670	14.687888765358366072	1	0	1774.2381089992704801	0	301	NaN	0	1	1	0	1	0
1	2	4	59	30848	412	14.687935068039223552	0	1	855.88769499918271322	0	NaN	NaN	0	1	1	0	1	0
1	2	4	60	21653	7873	14.687981361639685929	0	1	1460.6329310008732136	0	NaN	NaN	0	1	1	0	1	0
1	2	4	61	22783	282	14.688027651980519295	0	1	1881.3180899996950757	0	NaN	NaN	0	1	1	0	1	0
1	2	4	62	46523	1218	14.688073950819671154	1	1	1164.7220960003323853	0	173	344	1	1	0	1	2	0
1	2	5	1	70188	8403	14.689667035243473947	1	1	816.23903000036079902	0	10	147	1	1	0	1	2	0
1	2	5	2	42992	1122	14.689713324536569417	1	0	1291.6363460008142283	0	312	NaN	0	1	1	0	1	0
1	2	5	3	53859	740	14.689759620232507586	1	1	768.89221900091797579	0	8	NaN	1	1	0	1	2	0
1	2	5	4	62338	6328	14.689805923961102962	0	1	1448.6964100015029544	0	NaN	NaN	0	1	1	0	1	0
1	2	5	5	72075	9548	14.689852215233258903	0	1	1184.3652630013821181	0	NaN	NaN	0	1	1	0	1	0
1	2	5	6	1640	9510	14.689898523269221187	0	1	969.48453999902994838	0	NaN	NaN	0	1	1	0	1	0
1	2	5	7	45989	4361	14.689944802783429623	1	1	1308.483095999690704	0	124	NaN	1	1	0	1	2	0
1	2	5	8	40056	1368	14.68999111873563379	0	1	1543.5333690002153162	0	NaN	NaN	0	1	1	0	1	0
1	2	5	9	12498	7912	14.690037393476814032	0	1	1205.4842149991600309	0	NaN	NaN	0	1	1	0	1	0
1	2	5	10	26794	7719	14.690083716413937509	0	1	1129.1867090003506746	0	NaN	NaN	0	1	1	0	1	0
1	2	5	11	30082	402	14.690176311298273504	0	1	1476.3985410008899635	0	NaN	NaN	0	1	1	0	1	0
1	2	5	12	43350	6404	14.690222566248849034	0	1	1337.487594999402063	0	NaN	NaN	0	1	1	0	1	0
1	2	5	13	17826	8303	14.690268905833363533	1	1	1268.6426429991115583	0	139	148	1	1	0	1	2	0
1	2	5	14	59793	2937	14.690315158804878592	0	1	973.91714600053091999	0	NaN	NaN	0	1	1	0	1	0
1	2	5	15	19990	9883	14.69036150083411485	0	1	1860.9990040004049661	0	NaN	NaN	0	1	1	0	1	0
1	2	5	16	17948	3127	14.69040774111635983	1	1	1449.6299410002393415	0	185	NaN	1	1	0	1	2	0
1	2	5	17	42852	570	14.690454098978079855	1	0	2117.4552410011528991	0	115	NaN	1	0	1	0	1	0
1	2	5	18	5879	55	14.690500323777087033	0	1	1779.5279330002813367	0	NaN	NaN	0	1	1	0	1	0
1	2	5	19	59516	4918	14.690546692465431988	0	1	1296.5020450010342756	0	NaN	NaN	0	1	1	0	1	0
1	2	5	20	51436	7027	14.690592920640483499	0	1	1461.8600539997714804	0	NaN	NaN	0	1	1	0	1	0
1	2	5	21	38307	1905	14.690685500507242978	0	1	1725.432085999273113	0	NaN	NaN	0	1	1	0	1	0
1	2	5	22	36048	8442	14.690731884329579771	0	1	1461.0596250004164176	0	NaN	NaN	0	1	1	0	1	0
1	2	5	23	68008	5111	14.690778098185546696	0	1	1784.3992179987253621	0	NaN	NaN	0	1	1	0	1	0
1	2	5	24	43538	6764	14.690824403194710612	0	1	1888.7479609984438866	0	NaN	NaN	0	1	1	0	1	0
1	2	5	25	32141	9665	14.690870686317794025	0	1	1166.493008000543341	0	NaN	NaN	0	1	1	0	1	0
1	2	5	26	10256	6618	14.690916989697143435	0	1	1477.7494850004586624	0	NaN	NaN	0	1	1	0	1	0
1	2	5	27	66716	8844	14.690963274100795388	0	1	1159.1622889991413103	0	NaN	NaN	0	1	1	0	1	0
1	2	5	28	17042	5631	14.691009572125039995	0	1	1208.8376799983961973	0	NaN	NaN	0	1	1	0	1	0
1	2	5	29	26436	349	14.691055860370397568	0	1	1961.1316999998962274	0	NaN	NaN	0	1	1	0	1	0
1	2	5	30	66900	6574	14.691148447454907	0	1	1106.7137180016288767	0	NaN	NaN	0	1	2	0	1	0
1	2	5	31	5034	9972	14.691194755607284606	1	0	1081.5172849997907178	0	829	NaN	0	1	2	0	1	0
1	2	5	32	68103	6444	14.691241037915460765	0	1	1275.8986380013084272	0	NaN	NaN	0	1	1	0	1	0
1	2	5	33	57999	2830	14.691287226160056889	1	0	1462.356484998963424	0	402	NaN	0	1	1	0	1	0
1	2	5	34	28817	8399	14.691333525814116001	0	1	1539.2057700009900145	0	NaN	NaN	0	1	1	0	1	0
1	2	5	35	59113	4244	14.691379821626469493	0	1	1321.8523499999719206	0	NaN	NaN	0	1	1	0	1	0
1	2	5	36	60311	3515	14.691426110337488353	0	1	1261.7853100000502309	0	NaN	NaN	0	1	1	0	1	0
1	2	5	37	15739	7116	14.691472415230236948	1	0	1301.6293350010528229	0	120	NaN	1	0	2	0	1	0
1	2	5	38	7436	8678	14.691518697305582464	0	1	1588.27995299907343	0	NaN	NaN	0	1	2	0	1	0
1	2	5	39	24891	5890	14.691564991953782737	0	1	1535.6721970001672162	0	NaN	NaN	0	1	1	0	1	0
1	2	5	40	39746	4838	14.691611294518224895	0	1	1535.0189109994971659	0	NaN	NaN	0	1	1	0	1	0
1	2	5	41	9292	3861	14.691703873919323087	0	1	1074.7853749999194406	0	NaN	NaN	0	1	1	0	1	0
1	2	5	42	12634	3728	14.691750177880749106	0	1	892.06116300010762643	0	NaN	NaN	0	1	1	0	1	0
1	2	5	43	21406	7625	14.691796463332138956	0	1	933.0080590007128194	0	NaN	NaN	0	1	1	0	1	0
1	2	5	44	20250	6361	14.691842756466940045	0	1	1059.1915089989925036	0	NaN	NaN	0	1	1	0	1	0
1	2	5	45	12196	4637	14.691889059031382203	1	0	1040.135227000064333	0	375	NaN	0	1	1	0	1	0
1	2	5	46	64441	2812	14.691935345646925271	0	1	1435.7314370008680271	0	NaN	NaN	0	1	1	0	1	0
1	2	5	47	45881	1303	14.691981637384742498	0	1	1869.4198159992083674	0	NaN	NaN	0	1	1	0	1	0
1	2	5	48	59481	7545	14.692027937970124185	0	1	1563.9245620004658122	0	NaN	NaN	0	1	1	0	1	0
1	2	5	49	54437	2298	14.692074227263219655	0	1	2075.7187899998825742	0	NaN	NaN	0	1	1	0	1	0
1	2	5	50	19616	5401	14.692166817490942776	0	1	831.61862800079688895	0	NaN	NaN	0	1	1	0	1	0
1	2	5	51	14181	9776	14.692213112721219659	0	0	2033.6586449993774295	0	NaN	NaN	0	0	0	1	2	0
1	2	5	52	28478	1056	14.692259410978294909	0	1	2166.3934640000661602	0	NaN	NaN	0	1	1	0	1	0
1	2	5	53	48104	5995	14.692305701086297631	1	1	802.98922600013611373	0	107	NaN	1	1	0	1	2	0
1	2	5	54	27419	5431	14.692351993056945503	0	1	1616.8364700006350176	0	NaN	NaN	0	1	1	0	1	0
1	2	5	55	39754	8593	14.692398284911178052	0	1	2187.3850440006208373	0	NaN	NaN	0	1	1	0	1	0
1	2	5	56	45186	9719	14.692444583517499268	0	1	1369.3708749997313134	0	NaN	NaN	0	1	1	0	1	0
1	2	5	57	8117	6148	14.692490881774574518	1	0	1309.6313329988333862	0	449	NaN	0	1	1	0	1	0
1	2	5	58	40985	2687	14.692537176539190114	0	1	1084.7230349991150433	0	NaN	NaN	0	1	1	0	1	0
1	2	5	59	58362	4187	14.692583468277007341	1	0	1193.861429001117358	0	203	NaN	1	0	1	0	1	0
1	2	5	60	46154	3765	14.692629660363309085	0	1	1440.9575319987197872	0	NaN	NaN	0	1	1	0	1	0
1	2	5	61	11688	4431	14.692675966769456863	0	1	1303.8483439995616209	0	NaN	NaN	0	1	1	0	1	0
1	2	5	62	64332	1069	14.692722256062552333	1	1	903.60385699932521675	0	130	407	1	1	0	1	2	0
1	2	5	63	18428	7531	14.692768549080938101	0	1	1303.8460399984614924	0	NaN	NaN	0	1	1	0	1	0
1	2	6	1	48104	5995	14.694341092137619853	1	1	808.59717400016961619	0	10	118	1	1	0	1	2	0
1	2	6	2	9356	8152	14.694387462921440601	0	1	1449.92823199936538	0	NaN	NaN	0	1	1	0	1	0
1	2	6	3	11456	3854	14.694433674914762378	0	1	874.50346500008890871	0	NaN	NaN	0	1	1	0	1	0
1	2	6	4	24071	2311	14.694480046746321023	0	1	922.68445199988491368	0	NaN	NaN	0	1	1	0	1	0
1	2	6	5	44264	4893	14.694526274804957211	1	1	1817.1209550000639865	0	142	NaN	1	1	0	1	2	0
1	2	6	6	18093	1470	14.694572641979902983	0	0	2894.3889550009771483	1	NaN	NaN	0	0	1	1	2	0
1	2	6	7	57999	2830	14.694618860492482781	1	1	957.9646530000900384	0	36	439	1	1	0	1	2	0
1	2	6	8	38818	511	14.694665237097069621	1	1	843.9252459993440425	0	550	NaN	0	0	0	1	2	0
1	2	6	9	3016	1066	14.694711443386040628	0	1	1312.4258549996739021	0	NaN	NaN	0	1	1	0	1	0
1	2	6	10	66304	8504	14.694757832563482225	0	1	1966.181439000138198	0	NaN	NaN	0	1	1	0	1	0
1	2	6	11	24071	2311	14.694804036640562117	1	1	724.67811100068502128	0	6	NaN	1	1	0	1	2	0
1	2	6	12	35553	9040	14.694896622677333653	0	1	1504.1944259992305888	0	NaN	NaN	0	1	1	0	1	0
1	2	6	13	24701	8422	14.694943026755936444	0	1	1506.8334569987200666	0	NaN	NaN	0	1	2	0	1	0
1	2	6	14	39746	4838	14.694989211391657591	1	1	651.57617799923173152	0	36	NaN	1	1	0	1	2	0
1	2	6	15	70985	7165	14.695035407086834311	0	0	2344.4495370004005963	0	NaN	NaN	0	0	0	1	2	0
1	2	6	16	5757	4665	14.695081703015603125	1	0	3552.0728150004288182	0	338	NaN	0	1	1	0	1	0
1	2	6	17	22516	276	14.695127988001331687	1	0	2041.6594210000766907	0	171	NaN	1	0	1	0	1	0
1	2	6	18	52197	6487	14.695174284628592432	0	1	1174.2509140003676293	0	NaN	NaN	0	1	1	0	1	0
1	2	6	19	45262	8383	14.695220577763393521	0	1	738.1553119994350709	0	NaN	NaN	0	1	1	0	1	0
1	2	6	20	68538	4095	14.695266877068206668	1	0	1624.7988409995741677	0	533	NaN	0	1	1	0	1	0
1	2	6	21	27107	7176	14.695313172647729516	0	1	1051.5804440001375042	0	NaN	NaN	0	1	1	0	1	0
1	2	6	22	55596	5279	14.695405761245638132	0	0	1467.2136499993939651	0	NaN	NaN	0	0	0	1	2	0
1	2	6	23	9292	3861	14.695452050887979567	1	1	851.64293699926929548	0	44	NaN	1	1	0	1	2	0
1	2	6	24	39187	7300	14.695498350658454001	1	0	1202.9011659997195238	0	950	NaN	0	1	1	0	1	0
1	2	6	25	66139	9879	14.695544645539484918	0	1	1926.8378380002104677	0	NaN	NaN	0	1	1	0	1	0
1	2	6	26	39323	5288	14.69559094007126987	0	1	1135.3719950002414407	0	NaN	NaN	0	1	1	0	1	0
1	2	6	27	8228	8201	14.695637231459841132	0	1	1075.440298000103212	0	NaN	NaN	0	1	1	0	1	0
1	2	6	28	43969	9458	14.695683527155779302	0	1	751.39235899951017927	0	NaN	NaN	0	1	1	0	1	0
1	2	6	29	51078	700	14.695729812839999795	0	1	1358.986933000778663	0	NaN	NaN	0	1	1	0	1	0
1	2	6	30	59481	7545	14.695776115055195987	1	1	833.49529100087238476	0	44	NaN	1	1	0	1	2	0
1	2	6	31	38845	9753	14.695822401670739055	0	1	1102.4209819988755044	0	NaN	NaN	0	1	1	0	1	0
1	2	6	32	35522	2981	14.695868703885935247	0	1	847.96926400122174527	0	NaN	NaN	0	1	1	0	1	0
1	2	6	33	24071	2311	14.695914998068474233	1	1	686.64628799888305366	0	21	28	1	1	0	1	2	0
1	2	6	34	23402	1102	14.696007586899213493	1	0	1002.7210479984205449	0	186	NaN	1	0	1	0	1	0
1	2	6	35	46134	2186	14.696053881081752479	1	1	886.13179900130489841	0	475	638	0	0	0	1	2	0
1	2	6	36	61355	5676	14.696100173983722925	0	1	1651.3615120002214098	0	NaN	NaN	0	1	1	0	1	0
1	2	6	37	43119	2841	14.696146464208140969	0	1	1416.6585809998650802	0	NaN	NaN	0	1	1	0	1	0
1	2	6	38	44810	9452	14.69619275548029691	0	1	1185.2528309991612332	0	NaN	NaN	0	1	1	0	1	0
1	2	6	39	27643	6883	14.696239056880585849	0	1	1502.3019460004434222	0	NaN	NaN	0	1	1	0	1	0
1	2	6	40	23416	5686	14.696285350830294192	0	1	1428.5918340010539396	0	NaN	NaN	0	1	1	0	1	0
1	2	6	41	32312	1448	14.696331575978547335	0	1	1335.0200300010328647	0	NaN	NaN	0	1	1	0	1	0
1	2	6	42	48912	2353	14.696377842454239726	0	1	1427.0644099997298326	0	NaN	NaN	0	1	1	0	1	0
1	2	6	43	1129	7726	14.69642413523979485	0	0	2703.6135269991063979	1	NaN	NaN	0	0	1	1	2	0
1	2	6	44	33991	6890	14.696516722324304283	0	1	1427.0171500011201715	0	NaN	NaN	0	1	1	0	1	0
